time,accel_x,accel_y,accel_z,gyro_x,gyro_y,gyro_z,roll_accel,pitch_accel,roll_ekf,pitch_ekf,roll_madgwick,pitch_madgwick,roll_fused,pitch_fused
1021.342,0.955,-0.26,-0.511,0.097,-1.667,-0.111,-153.03272296916714,-59.021160610700186,-76.89703545284362,-29.657482194250736,-0.00029132035833069473,-0.0012723714122936038,-38.44866338660098,-14.829377282831516
1021.398,0.951,-0.258,-0.512,-0.033,0.929,0.164,-153.25617942015776,-58.915430359994716,-102.87965370507536,-39.57825362184495,-0.17020782068460671,-0.5685549294686997,-51.52493076287998,-20.073404275656824
1021.455,0.96,-0.259,-0.5,0.074,-0.255,0.019,-152.61584336600367,-59.60573665936551,-116.11128200780736,-44.91594051432223,-0.33625584872972,-1.213601215737718,-58.22376892826854,-23.064770865029974
1021.511,0.954,-0.261,-0.505,-0.018,-0.3,0.027,-152.66864656179987,-59.21058353038578,-124.50678899726276,-48.2123859673918,-0.5067297039877733,-1.8491051952553597,-62.506759350625266,-25.030745581323583
1021.567,0.96,-0.263,-0.497,0.265,0.272,0.324,-152.11332360271734,-59.64137971703075,-130.421752516404,-50.64410740056834,-0.6622384624301251,-2.4521197868148557,-65.54199548941708,-26.548113593691596
1021.623,0.954,-0.256,-0.504,-0.071,-0.201,-0.004,-153.0723221489595,-59.351289049016906,-135.23623293267426,-52.511675111886774,-0.8327417729095237,-3.082381448512579,-68.03448735279188,-27.797028280199676
1021.68,0.966,-0.26,-0.486,-0.071,0.051,-0.057,-151.85413537169637,-60.29193399770913,-139.0036904639188,-54.21267230791736,-1.0066695042281777,-3.7090753726166117,-70.00517998407348,-28.960873840266984
1021.736,0.955,-0.251,-0.497,0.02,0.486,0.256,-153.2048465278248,-59.756900460900134,-142.4130835919551,-55.536535904904454,-1.170205145469446,-4.300611061761588,-71.79164436871227,-29.91857348333302
1021.793,0.958,-0.258,-0.504,0.081,-0.461,-0.157,-152.89187712919824,-59.41603296997967,-145.30619795882333,-56.667638001333636,-1.335398538478568,-4.955653596739348,-73.32079824865095,-30.81164579903649
1021.849,0.96,-0.265,-0.499,-0.193,0.135,-0.095,-152.02892141757218,-59.52137630274939,-147.63352201769416,-57.61897593582476,-1.5170421109321477,-5.564216689697433,-74.57528206431316,-31.591596312761094
1021.905,0.956,-0.264,-0.495,-0.003,0.089,-0.05,-151.92751306414706,-59.59473330040163,-149.58664047501793,-58.44472847766283,-1.6885744357839787,-6.1746692278896465,-75.63760745540095,-32.309698852776236
1021.962,0.957,-0.259,-0.5,0.02,-0.003,0.095,-152.61584336600367,-59.527415305892994,-151.37129218914677,-59.14238604312707,-1.8599451846301605,-6.801192152327894,-76.61561868688847,-32.97178909772748
1022.019,0.957,-0.262,-0.503,-0.3,-0.102,0.08,-152.4861306992901,-59.34784806711403,-152.84761083102435,-59.69371299512557,-2.0515456377159436,-7.432163353885911,-77.44957823437015,-33.56293817450574
1022.075,0.951,-0.256,-0.497,0.02,-0.194,-0.141,-152.74743246828294,-59.550326105583615,-154.06392236953428,-60.1728419660779,-2.2181376330729106,-8.05755516545676,-78.14103000130359,-34.11519856576733
1022.131,0.955,-0.26,-0.499,-0.033,0.15,0.019,-152.4785898201591,-59.493983158256476,-154.9983930687284,-60.53166883356101,-2.390778362527352,-8.662131887684183,-78.69458571562788,-34.5969003606226
1022.188,0.959,-0.259,-0.494,0.188,0.196,-0.095,-152.3323594404728,-59.81663560970914,-155.71595473373503,-60.87632320368159,-2.5520327145505712,-9.274643363558646,-79.1339937241428,-35.075483283620116
1022.244,0.94,-0.263,-0.502,-0.071,-0.285,-0.134,-152.34975997087932,-58.91443630551392,-156.25780279370662,-60.99870228418634,-2.730309677724564,-9.901157616591064,-79.49405623571559,-35.44992995038871
1022.3,0.958,-0.259,-0.497,-0.041,0.035,0.05,-152.47477425625567,-59.67203930130939,-156.67864306085642,-61.19527141108683,-2.903885862353741,-10.509757604191604,-79.79126446160508,-35.85251450763921
1022.356,0.939,-0.26,-0.515,-0.125,1.875,0.042,-153.21287327022856,-58.433953796753535,-157.11294780039685,-61.036202973899215,-3.0850228720906627,-11.013736863487951,-80.09898533624376,-36.024969918693586
1022.413,0.95,-0.261,-0.498,-0.041,0.035,-0.065,-152.34112889497263,-59.381169185829506,-157.28813955070592,-61.13507943751603,-3.263891424823078,-11.631079779527258,-80.2760154877645,-36.38307960852165
1022.469,0.956,-0.255,-0.504,-0.048,-0.362,0.149,-153.1627618941849,-59.423969219909445,-157.50864509216706,-61.21785547535156,-3.4390361455343355,-12.25925866293376,-80.4738406188507,-36.73855706914266
1022.526,0.938,-0.261,-0.503,-0.209,0.15,-0.05,-152.57580263647642,-58.86214630776661,-157.56806579606,-61.15268882298103,-3.630483848186982,-12.867471363104007,-80.59927482212349,-37.01008009304252
1022.582,0.952,-0.262,-0.511,0.005,-0.239,-0.042,-152.85487118706664,-58.901386867718045,-157.59203189614445,-61.09580426891139,-3.8060319769759046,-13.48611543996831,-80.69903193656017,-37.29095985443985
1022.638,0.962,-0.251,-0.497,0.158,0.501,0.072,-153.2048465278248,-59.938641974233775,-157.6207874783203,-61.17123538008219,-3.9668303327670094,-14.063961809893621,-80.79380890554366,-37.6175985949879
1022.694,0.958,-0.255,-0.503,-0.102,-0.522,-0.279,-153.11689463024138,-59.51599130473496,-157.60176704190417,-61.1986093994029,-4.141656131545288,-14.698520645850518,-80.87171158672473,-37.94856502262671
1022.75,0.957,-0.26,-0.501,-0.125,0.257,0.164,-152.57239924249382,-59.46750002071908,-157.45528968753013,-61.161887530689256,-4.326985347088493,-15.285899338943468,-80.8911375173093,-38.22389343481636
1022.806,0.953,-0.261,-0.503,-0.148,-0.216,-0.042,-152.57580263647642,-59.262971713668925,-157.2917595616091,-61.10420941307278,-4.5129888695110605,-15.89910562180907,-80.90237421556007,-38.501657517440925
1022.863,0.958,-0.258,-0.504,-0.003,0.142,0.156,-152.89187712919824,-59.41603296997967,-157.1688971525665,-61.05208442601325,-4.695198750706203,-16.501513780513125,-80.93204795163635,-38.77679910326319
1022.92,0.946,-0.263,-0.506,-0.041,0.081,-0.172,-152.536265202184,-58.917597389395745,-156.97000077166243,-60.91394801257796,-4.879647892546046,-17.106493751147976,-80.92482433210424,-39.01022088186297
1022.976,0.956,-0.26,-0.502,-0.163,-0.285,0.034,-152.61908305950791,-59.40184387190384,-156.77508634992694,-60.87438686395843,-5.069419330952951,-17.71993779803551,-80.92225284043994,-39.29716233099697
1023.033,0.951,-0.261,-0.509,-0.109,0.867,0.149,-152.85260364302823,-58.97356771309789,-156.61934972631406,-60.706582518279255,-5.262040947106941,-18.276872263423282,-80.9406953367105,-39.49172739085127
1023.089,0.96,-0.263,-0.498,-0.239,-0.445,-0.004,-152.1609079922253,-59.60210955973212,-156.3416642990309,-60.71276669930569,-5.45871173347307,-18.896681473157784,-80.90018801625199,-39.80472408623174
1023.146,0.954,-0.26,-0.506,-0.079,0.402,-0.05,-152.8043603594678,-59.19149240384792,-156.17625883392938,-60.60407737900415,-5.647618207474374,-19.47881590405358,-80.91193852070188,-40.041446641528864
1023.202,0.954,-0.267,-0.503,-0.025,-0.407,-0.065,-152.03996202737676,-59.165734866933356,-155.87553337654919,-60.532321442736986,-5.836344458669461,-20.09354770882728,-80.85593891760932,-40.31293457578214
1023.259,0.96,-0.263,-0.501,0.173,0.471,0.149,-152.30276854779072,-59.48438581748975,-155.62824862255962,-60.47214217528164,-6.017667922096848,-20.667833898244716,-80.82295827232824,-40.56998803676318
1023.316,0.954,-0.258,-0.502,-0.232,-0.224,0.057,-152.79936402875168,-59.39002248769115,-155.4901627746635,-60.43079087292407,-6.221001210378023,-21.281305767334228,-80.85558199252077,-40.85604832012915
1023.372,0.958,-0.262,-0.495,-0.14,0.058,0.011,-152.10804742995913,-59.68878386298083,-155.23049677307353,-60.419564620560564,-6.416792586602981,-21.866774828184628,-80.82364467983825,-41.1431697243726
1023.429,0.967,-0.257,-0.507,-0.109,-0.369,-0.111,-153.11939697277333,-59.55234914057775,-155.14987020170483,-60.40404264615179,-6.609790090063742,-22.487541344904578,-80.87983014588428,-41.44579199552818
1023.485,0.951,-0.26,-0.512,-0.01,0.348,0.24,-153.07797039218974,-58.875555223010565,-155.04898282583324,-60.23970187774524,-6.805441812340163,-23.05305201337163,-80.92721231908669,-41.64637694555844
1023.541,0.957,-0.268,-0.499,0.043,-0.133,0.111,-151.76090414270442,-59.380223853212186,-154.7349126046266,-60.192909008150366,-7.001315109704143,-23.643648980595074,-80.86811385716537,-41.91827899437272
1023.598,0.956,-0.263,-0.494,-0.003,-0.201,-0.149,-151.96966887497527,-59.65507927824894,-154.48303354373178,-60.19482537670137,-7.195841188815651,-24.249778399151428,-80.83943736627371,-42.2223018879264
1023.655,0.953,-0.262,-0.507,0.112,0.226,-0.095,-152.67164895763867,-59.085108755071424,-154.3546495644929,-60.08033374944355,-7.385163308308705,-24.830310156830976,-80.8699064364008,-42.45532195313726
1023.712,0.958,-0.26,-0.505,0.074,-0.354,-0.019,-152.75825848264267,-59.336179676258865,-154.24700984042656,-60.04277106799203,-7.580157492843185,-25.442173862235062,-80.91358366663488,-42.74247246511354
1023.768,0.955,-0.26,-0.5,0.036,0.28,-0.141,-152.52556837372288,-59.45449498811502,-154.1059288401379,-59.99259795673847,-7.770321343095996,-26.00757269631019,-80.93812509161694,-43.00008532652433
1023.824,0.95,-0.263,-0.503,-0.056,-0.415,-0.111,-152.3966047261581,-59.142471279684834,-153.9574630632956,-59.929023994834054,-7.973019424617306,-26.60936515242908,-80.96524124395646,-43.269194573631566
1023.88,0.952,-0.259,-0.508,-0.201,0.287,0.164,-152.98557937421407,-59.07985865751888,-153.9190342945967,-59.82569930952962,-8.187918360212365,-27.16956757555702,-81.05347632740454,-43.49763344254332
1023.936,0.96,-0.257,-0.506,0.265,-0.117,0.103,-153.07375090013153,-59.409600089606315,-153.8705355738728,-59.80340218527774,-8.376085460293648,-27.751828793808713,-81.12331051708321,-43.77761548954322
1023.992,0.958,-0.269,-0.507,-0.094,-0.14,-0.149,-152.0508306322378,-59.0739677393293,-153.6781241400147,-59.72926957216801,-8.58592152302256,-28.334124032132646,-81.13202283151863,-44.03169680215033
1024.048,0.956,-0.264,-0.505,-0.27,0.02,-0.103,-152.4006789730257,-59.20209671470215,-153.56535333385582,-59.673777887874856,-8.80557342645174,-28.906536998333323,-81.18546338015378,-44.29015744310409
1024.104,0.956,-0.265,-0.508,0.234,-0.3,0.027,-152.45104309089703,-59.06423082333258,-153.44432306263568,-59.61625201172938,-9.005062590552381,-29.49405288491871,-81.22469282659402,-44.555152448324044
1024.16,0.957,-0.261,-0.515,-0.109,-0.003,0.08,-153.12428536342998,-58.89728155596709,-153.45594413427278,-59.52261384297807,-9.223610217599136,-30.064132752770746,-81.33977717593596,-44.79337329787441
1024.216,0.957,-0.265,-0.5,-0.018,-0.3,0.141,-152.07641028486162,-59.40372424373905,-153.29339925724744,-59.53203532264971,-9.444945887825849,-30.647686961850496,-81.36917257253664,-45.0898611422501
1024.272,0.956,-0.261,-0.505,-0.3,-0.209,0.027,-152.66864656179987,-59.26332171337025,-153.25231878654353,-59.512428699906664,-9.67808537373979,-31.22654384560271,-81.46520208014167,-45.369486272754685
1024.328,0.957,-0.263,-0.499,0.097,0.188,-0.103,-152.20834318954937,-59.48446711840547,-153.1213184069565,-59.509808295573144,-9.885551861029109,-31.78292076639188,-81.50343513399281,-45.64636453098251
1024.385,0.955,-0.26,-0.507,0.059,-0.102,0.111,-152.85031830221683,-59.17851279581061,-153.10616069775773,-59.47305478104775,-10.109020859027472,-32.36260375910865,-81.6075907783926,-45.9178292700782
1024.441,0.951,-0.26,-0.499,0.036,-0.239,-0.225,-152.4785898201591,-59.38869707474893,-153.03311613448705,-59.47882997332599,-10.321945518277175,-32.941241745132714,-81.67753082638211,-46.21003585922935
1024.497,0.952,-0.261,-0.489,-0.064,0.104,-0.057,-151.9092718105408,-59.790249313606495,-152.88165313736158,-59.53001986971598,-10.546876717309539,-33.497564212327944,-81.71426492733556,-46.51379204102196
1024.554,0.95,-0.264,-0.504,-0.033,-0.323,-0.073,-152.35402463626133,-59.082522000513364,-152.8142230157716,-59.48435785124835,-10.78132090789463,-34.086211180581074,-81.79777196183312,-46.78528451591471
1024.61,0.959,-0.263,-0.496,-0.064,0.219,-0.004,-152.06558938201485,-59.65463567177578,-152.70904346058265,-59.50663134428684,-11.012562238873798,-34.632871406085656,-81.86080284972823,-47.06975137518624
1024.666,0.959,-0.265,-0.492,-0.094,-0.125,-0.248,-151.69230013276558,-59.769800111147305,-152.5573100812314,-59.56108846068184,-11.24249227843448,-35.19917261660208,-81.89990117983294,-47.38013053864196
1024.722,0.953,-0.26,-0.506,0.013,0.043,-0.095,-152.8043603594678,-59.1650525474006,-152.59215403180775,-59.50552576655772,-11.471924348894762,-35.75423586233148,-82.03203919035126,-47.6298808144446
1024.778,0.956,-0.263,-0.497,-0.086,-1.995,-0.111,-152.11332360271734,-59.5369426593461,-152.51912487161053,-59.61046944580683,-11.727117790479511,-36.41892034708278,-82.12312133104501,-48.01469489644481
1024.834,0.961,-0.26,-0.511,-0.041,0.402,-0.073,-153.03272296916714,-59.179286355452284,-152.59678108807464,-59.52878199606379,-11.962133597412256,-36.9514489281113,-82.27945734274344,-48.240115462087545
1024.89,0.958,-0.263,-0.496,0.066,-0.278,0.21,-152.06558938201485,-59.62856675744787,-152.5086286972725,-59.55974070497112,-12.213996339638298,-37.51536424065873,-82.3613125184554,-48.53755247281492
1024.946,0.958,-0.265,-0.499,0.15,0.112,-0.034,-152.02892141757218,-59.4691170398964,-152.4206973209047,-59.542912660362084,-12.451958606756829,-38.0590797964194,-82.43632796383076,-48.800996228390744
1025.002,0.956,-0.281,-0.505,-0.041,-0.4,0.011,-150.90687773562433,-58.84645795299762,-152.1754006123934,-59.45415025975456,-12.721068572094262,-38.62590364084762,-82.44823459224382,-49.04002695030109
1025.059,0.958,-0.261,-0.5,-0.064,0.532,-0.195,-152.43544106570084,-59.512565614020865,-152.19911375543853,-59.43444516329961,-12.968227890089803,-39.15576967572137,-82.58367082276416,-49.29510741951049
1025.115,0.958,-0.263,-0.5,-0.01,-0.675,0.057,-152.25562983051745,-59.47135548825179,-152.190572666098,-59.46947736737871,-13.236369734931671,-39.737080752777686,-82.71347120051485,-49.603279060078194
1025.172,0.956,-0.26,-0.509,-0.209,0.509,-0.057,-152.94180483899322,-59.12622091556377,-152.30161037016293,-59.388172065903746,-13.504991540119958,-40.263863495225586,-82.90330095514145,-49.82601778056467
1025.228,0.962,-0.266,-0.508,0.188,-0.262,-0.103,-152.36245420505634,-59.20170535580057,-152.29071801363818,-59.36614281672779,-13.759442332382221,-40.82150121829853,-83.0250801730102,-50.09382201751316
1025.284,0.96,-0.258,-0.504,0.188,0.264,0.065,-152.89187712919824,-59.468345771955846,-152.3657166997627,-59.363404121356496,-14.014732457413011,-41.348108880897165,-83.19022457858784,-50.355756501126834
1025.34,0.938,-0.259,-0.496,-0.086,0.051,-0.21,-152.42745303569362,-59.18240473180048,-152.3732033421541,-59.32696951400498,-14.28320121417544,-41.88730342018929,-83.32820227816478,-50.607136467097135
1025.396,0.96,-0.253,-0.503,0.295,-0.323,0.065,-153.2984222040037,-59.60822089308341,-152.49934855172447,-59.37978487389551,-14.544518696426293,-42.44353714787269,-83.52193362407537,-50.9116610108841
1025.452,0.957,-0.265,-0.499,0.036,0.119,0.134,-152.02892141757218,-59.44292664686906,-152.42477975058748,-59.3793893186283,-14.83090008333286,-42.970721354230655,-83.62783991696017,-51.17505533642948
1025.508,0.962,-0.269,-0.489,-0.071,-0.117,0.065,-151.18470859006757,-59.879772795505126,-152.23045984963994,-59.45959786699126,-15.129032347839944,-43.508993531958865,-83.67974609873994,-51.48429569947506
1025.564,0.958,-0.262,-0.503,-0.117,0.196,0.141,-152.4861306992901,-59.374086311430574,-152.26473035838103,-59.43644294948082,-15.430407643363921,-44.029379412370105,-83.84756900087248,-51.73291118092546
1025.621,0.955,-0.257,-0.502,-0.102,0.013,0.118,-152.88972392152854,-59.43661996860505,-152.35852671746505,-59.43484078471469,-15.739842008839057,-44.56858390690502,-84.04918436315205,-52.00171234580985
1025.677,0.954,-0.256,-0.494,0.112,-0.026,-0.248,-152.6059680625825,-59.74840492732158,-152.38744887597892,-59.48456085332595,-16.017212429514128,-45.10421410106076,-84.20233065274653,-52.294387477193354
1025.733,0.96,-0.264,-0.498,0.028,-0.171,0.027,-152.07102129131908,-59.58134790279543,-152.33334233860316,-59.50926741232809,-16.325844265202917,-45.64047675363856,-84.32959330190303,-52.574872082983326
1025.79,0.948,-0.257,-0.495,0.15,0.142,-0.126,-152.56202534227762,-59.53027832581525,-152.35694621832047,-59.50782410199135,-16.622128573074967,-46.17086086093123,-84.48953739569772,-52.83934248146129
1025.846,0.951,-0.258,-0.505,0.074,-0.316,0.118,-152.9379158852027,-59.19207054423312,-152.44176848324582,-59.475106529798374,-16.94464720927879,-46.71116729981543,-84.69320784626231,-53.093136914806905
1025.902,0.953,-0.264,-0.499,-0.086,0.348,-0.225,-152.11855798960363,-59.3585965873262,-152.39586359411362,-59.440008059963624,-17.254456814643614,-47.21837550944922,-84.82516020437862,-53.329191784706424
1025.958,0.964,-0.26,-0.513,0.112,-1.522,-0.103,-153.12307751998074,-59.17957489996123,-152.5038319182365,-59.469697159665174,-17.595325390562216,-47.82339553376284,-85.04957865439935,-53.646546346714004
1026.014,0.959,-0.261,-0.506,-0.102,1.173,0.126,-152.7148512551617,-59.302856208356694,-152.54598587779486,-59.38445131021409,-17.91934743348432,-48.27840093481253,-85.23266665563959,-53.83142612251331
1026.07,0.956,-0.264,-0.496,0.249,-1.14,0.156,-151.97549946792975,-59.555404187836515,-152.44989638647823,-59.460838087243374,-18.279162006187512,-48.85282700208685,-85.36452919633287,-54.15683254466511
1026.126,0.956,-0.263,-0.494,-0.01,0.562,-0.011,-151.96966887497527,-59.65507927824894,-152.3760484770618,-59.46143985119839,-18.615396269178103,-49.33800735812101,-85.49572237311995,-54.3997236046597
1026.182,0.963,-0.262,-0.505,0.074,-0.14,-0.164,-152.5791792802091,-59.42634331926718,-152.40230699196968,-59.46074089907574,-18.956455127362442,-49.862319615963756,-85.67938105966606,-54.66153025751974
1026.239,0.955,-0.266,-0.499,0.02,-0.071,-0.111,-151.9394335423924,-59.369554005008965,-152.32760589742182,-59.44764298146553,-19.320445126087638,-50.38781739245294,-85.82402551175473,-54.91773018695923
1026.295,0.961,-0.262,-0.504,-0.193,0.31,0.011,-152.53272766139187,-59.413347312008035,-152.3649238714713,-59.42483628397931,-19.692125613266402,-50.88121577002772,-86.02852474236884,-55.15302602700352
1026.352,0.952,-0.268,-0.503,0.028,0.081,0.065,-151.95116701244223,-59.091981053245775,-152.29552599444062,-59.36544113254965,-20.08119004704452,-51.3907721281132,-86.18835802074257,-55.37810663033142
1026.408,0.955,-0.254,-0.508,0.005,-0.453,-0.095,-153.434948822922,-59.259041661101016,-152.46945518878488,-59.3646890954504,-20.463633092307965,-51.92411898300127,-86.46654414054642,-55.64440403922583
1026.464,0.954,-0.258,-0.501,0.226,0.264,-0.073,-152.75288842974936,-59.429597429071066,-152.5064059091823,-59.356220758851805,-20.828505531187606,-52.41613618929052,-86.66745572018495,-55.88617847407116
1026.521,0.951,-0.267,-0.502,-0.232,-0.514,0.08,-151.9927161784209,-59.12543137706338,-152.44154766108215,-59.338720528992646,-21.274114012726216,-52.950623705316914,-86.85783083690418,-56.144672117154784
1026.577,0.959,-0.262,-0.504,0.112,0.333,-0.195,-152.53272766139187,-59.36103375127804,-152.4517373790393,-59.31903160206458,-21.653935852046768,-53.436708440735046,-87.05283661554303,-56.377870021399815
1026.633,0.954,-0.273,-0.495,-0.056,-0.392,-0.202,-151.1225987777172,-59.35121041484223,-152.2464243862287,-59.33546247943352,-22.081746407136432,-53.954964161932686,-87.16408539668257,-56.6452133206831
1026.69,0.955,-0.259,-0.505,0.081,0.257,0.126,-152.84801495429795,-59.27754587409144,-152.3292363712574,-59.306858972273965,-22.512121522370165,-54.44314244269132,-87.42067894681378,-56.87500070748264
1026.746,0.953,-0.263,-0.49,-0.209,0.066,0.088,-151.77600141309537,-59.73446098453869,-152.24815782187284,-59.36400773242156,-22.967075255739914,-54.929178274807924,-87.60761653880638,-57.14659300361474
1026.802,0.955,-0.263,-0.505,0.112,-0.308,0.195,-152.48985672320333,-59.19618852350594,-152.27322885611326,-59.348095495745305,-23.434325381304237,-55.430524794247084,-87.85377711870875,-57.389310144996195
1026.863,0.966,-0.278,-0.51,0.211,0.058,0.286,-151.40528525793445,-58.98186160419139,-152.11796517066412,-59.281089244860354,-23.95554744304079,-55.94735417081965,-88.03675630685245,-57.61422170784
1026.92,0.958,-0.26,-0.504,0.005,0.005,0.072,-152.7120120544845,-59.37553097789164,-152.1997164387949,-59.28773251679285,-24.437547780255294,-56.4395762818308,-88.3186321095251,-57.86365439931183
1026.976,0.952,-0.26,-0.499,0.097,-0.644,-0.08,-152.4785898201591,-59.41508007860248,-152.23174690313667,-59.33107822211345,-24.930470939374768,-56.95647629916895,-88.58110892125572,-58.1437772606412
1027.032,0.954,-0.264,-0.513,-0.155,0.287,0.072,-152.76874885273887,-58.835975467032746,-152.31868846129288,-59.23264119494773,-25.431888414276685,-57.41961792746326,-88.87528843778477,-58.32612956120549
1027.088,0.955,-0.258,-0.496,0.226,-0.094,-0.218,-152.51829456653672,-59.653884532302804,-152.33818019775364,-59.29372313436132,-25.908462094855828,-57.90721135060438,-89.12332114630473,-58.60046724248285
1027.145,0.959,-0.259,-0.511,-0.048,-0.163,0.141,-153.12186024790137,-59.14667268384589,-152.46471103031814,-59.27135020054438,-26.455365122560313,-58.39596357872014,-89.46003807643923,-58.833656889632266
1027.201,0.958,-0.269,-0.5,0.288,0.684,-0.088,-151.71974850826314,-59.34646671211386,-152.3393826561142,-59.243070896274226,-26.942782809644136,-58.83305608606632,-89.64108273287917,-59.03806349117028
1027.257,0.943,-0.264,-0.516,0.104,-0.4,0.027,-152.9044475062482,-58.42309351658749,-152.4242287796998,-59.12545112922798,-27.509539356342803,-59.3200034111841,-89.9668840680213,-59.22272727020604
1027.314,0.967,-0.261,-0.493,0.005,0.532,0.027,-152.10272896905238,-60.020960305462964,-152.37803906550005,-59.22799430206841,-28.053448139914156,-59.76644786153736,-90.21574360270711,-59.497221081802884
1027.37,0.952,-0.257,-0.511,-0.056,-0.72,0.042,-153.3005570924194,-59.001395031932105,-152.52866745160824,-59.21999756965479,-28.666357288397663,-60.26466086592578,-90.59751237000296,-59.742329217790285
1027.426,0.949,-0.265,-0.51,-0.025,0.264,0.011,-152.54325771540013,-58.799812612651344,-152.54133642475887,-59.1331412234771,-29.25403533134301,-60.70923730471756,-90.89768587805094,-59.92118926409733
1027.482,0.938,-0.264,-0.503,-0.163,-0.102,0.011,-152.30722479706333,-58.80007570591456,-152.52132211644818,-59.07436721487019,-29.885415676537846,-61.16751282003562,-91.203368896493,-60.12094001745291
1027.538,0.958,-0.259,-0.498,-0.048,-0.247,0.057,-152.5219459561066,-59.63253211476451,-152.53099296871272,-59.16046373701505,-30.527223899838106,-61.63054252962985,-91.52910843427541,-60.39550313332245
1027.594,0.951,-0.265,-0.487,-0.003,-0.27,0.034,-151.4472732145377,-59.75789376502397,-152.3676623169382,-59.25798079564075,-31.19193914056685,-62.088340779521936,-91.77980072875253,-60.67316078758134
1027.65,0.954,-0.265,-0.493,-0.048,0.608,0.095,-151.74084329215836,-59.599983142855585,-152.2702932149035,-59.27825491480198,-31.833920354417856,-62.49927165278348,-92.05210678466068,-60.88876328379273
1027.706,0.953,-0.258,-0.5,0.081,-0.11,-0.034,-152.70626595652075,-59.44288786082305,-152.3294857807589,-59.30732220015644,-32.50888963278561,-62.947293491391854,-92.41918770677225,-61.12730784577415
1027.762,0.964,-0.263,-0.498,-0.025,0.303,0.011,-152.1609079922253,-59.70598057107215,-152.30184558651948,-59.35493964991648,-33.190335418269264,-63.36941966701208,-92.74609050239437,-61.362179658464285
1027.819,0.953,-0.264,-0.496,0.02,-0.476,-0.08,-151.97549946792975,-59.47667741098086,-152.24583554276344,-59.39930025711176,-33.94734038786166,-63.83336951627495,-93.09658796531255,-61.61633488669335
1027.875,0.954,-0.258,-0.509,0.081,0.463,-0.073,-153.1206334363581,-59.113448483750226,-152.37396334721822,-59.33536310788392,-34.64448242648773,-64.24432485156706,-93.50922288685297,-61.78984397972549
1027.931,0.961,-0.258,-0.493,-0.117,-0.239,-0.118,-152.37574238956626,-59.928721475976516,-152.3804634044819,-59.44112539185032,-35.41178108238616,-64.68430634369787,-93.89612224343404,-62.062715867774095
1027.987,0.957,-0.26,-0.508,-0.025,0.112,-0.195,-152.89613292503924,-59.191904394491694,-152.46354203533545,-59.40189799258646,-36.171186364919585,-65.10603875953426,-94.31736420012751,-62.25396837606036
1028.044,0.962,-0.256,-0.488,0.12,-0.262,-0.088,-152.31893843151474,-60.194210854437024,-152.43954482815016,-59.543007678776995,-36.98911696626822,-65.5448958459092,-94.7143308972092,-62.5439517623431
1028.1,0.953,-0.258,-0.51,-0.01,-0.14,-0.218,-153.16595652922553,-59.04750547134918,-152.55801414099068,-59.4807123014951,-37.81283013435847,-65.9696471196386,-95.18542213767458,-62.72517971056685
1028.156,0.956,-0.257,-0.501,-0.01,0.188,0.103,-152.84335337909627,-59.50245189265384,-152.61231128750805,-59.48067030457347,-38.66540940722233,-66.36390015114002,-95.63886034736518,-62.92228522785675
1028.212,0.957,-0.263,-0.502,0.013,0.005,-0.057,-152.34975997087932,-59.36660891508835,-152.58120601192962,-59.46804821411419,-39.54853536503178,-66.76390038265144,-96.06487068848071,-63.11597429838282
1028.268,0.952,-0.253,-0.489,-0.033,-0.163,-0.019,-152.64374952263634,-59.95781468068837,-152.6014534902446,-59.557609125100285,-40.46804059915891,-67.16736166361949,-96.53474704470176,-63.36248539435989
1028.325,0.958,-0.257,-0.486,-0.056,0.119,0.179,-152.12981917011317,-60.149748652027355,-152.5390782353238,-59.65374443230785,-41.43266139639996,-67.55086570630455,-96.98586981586189,-63.6023050693062
1028.381,0.956,-0.266,-0.499,0.036,-0.293,-0.202,-151.9394335423924,-59.395836234368055,-152.44834423510466,-59.63954322704791,-42.41804394548018,-67.94901431458048,-97.43319409029242,-63.794278770814195
1028.438,0.955,-0.264,-0.494,0.158,0.104,-0.08,-151.87937547453814,-59.60791520548394,-152.351932258044,-59.64023663959156,-43.418578534755234,-68.32679278558277,-97.88525539639961,-63.983514712587166
1028.494,0.955,-0.265,-0.51,-0.01,-0.384,-0.057,-152.54325771540013,-58.9595870190755,-152.37942413777358,-59.56109741193197,-44.49751330426843,-68.71033522600116,-98.43846872102101,-64.13571631896656
1028.55,0.953,-0.26,-0.503,-0.01,0.142,0.042,-152.6656204546129,-59.28340223623024,-152.4233295613538,-59.515430506283145,-45.56107804090021,-69.06362373529039,-98.992203801127,-64.28952712078677
1028.606,0.952,-0.262,-0.503,-0.094,-0.071,0.004,-152.4861306992901,-59.216045979647575,-152.4381003800602,-59.47434276191253,-46.68441693315387,-69.41820400948374,-99.56125865660704,-64.44627338569813
1028.662,0.959,-0.261,-0.503,-0.033,-0.491,0.065,-152.57580263647642,-59.420706043084316,-152.46222698220222,-59.48953155968044,-47.88877346238278,-69.7794778182685,-100.1755002222925,-64.63450468897447
1028.719,0.949,-0.269,-0.502,-0.155,0.417,-0.042,-151.8150757151163,-59.030450119727504,-152.3693942059231,-59.396903668087795,-49.05861766181024,-70.10284169871036,-100.71400593386667,-64.74987268339908
1028.775,0.954,-0.251,-0.496,-0.079,-0.148,0.271,-153.15838244552387,-59.77077142744303,-152.49455193468154,-59.45948694226466,-50.31015496360922,-70.42996162429257,-101.40235344914538,-64.94472428327862
1028.831,0.954,-0.254,-0.507,0.135,0.119,0.088,-153.38976288630172,-59.27233239174423,-152.6322257684695,-59.42373200471171,-51.542761156158186,-70.74539101690875,-102.08749346231384,-65.08456151081023
1028.888,0.948,-0.262,-0.5,-0.117,-0.239,0.057,-152.34546152475534,-59.22836072033005,-152.60229827639583,-59.40234269151107,-52.90578469760692,-71.06484653226616,-102.75404148700137,-65.23359461188862
1028.944,0.954,-0.26,-0.505,-0.079,-0.415,-0.073,-152.75825848264267,-59.230906675247,-152.63792980522206,-59.391333860510024,-54.290871712025655,-71.38233043002086,-103.46440075862385,-65.38683214526544
1029.0,0.956,-0.264,-0.509,0.12,-0.102,-0.004,-152.5858535685166,-59.0454638025202,-152.6324148980662,-59.33662916675273,-55.67648184469762,-71.67388448885556,-104.1544483713819,-65.50525682780415
1029.056,0.951,-0.263,-0.512,0.02,1.135,0.08,-152.8117092922163,-58.81534781246126,-152.66769287674367,-59.193346409940105,-56.94065661175363,-71.91312619537631,-104.80417474424866,-65.5532363026582
1029.112,0.957,-0.265,-0.512,0.12,-0.926,-0.027,-152.63490460080314,-58.93446158914542,-152.6660918285698,-59.185312679273345,-58.523674077459724,-72.20895736996049,-105.59488295301476,-65.69713502461691
1029.168,0.959,-0.261,-0.504,0.028,1.555,-0.027,-152.6222972286683,-59.38140731898971,-152.66682059248055,-59.12972650377033,-59.77391452692309,-72.42425366406324,-106.22036755970183,-65.77699008391679
1029.224,0.951,-0.268,-0.5,-0.071,-0.827,-0.164,-151.80869162620687,-59.18286429855781,-152.5435152730852,-59.166216100727866,-61.42934332300453,-72.69581658021413,-106.98642929804487,-65.93101634047099
1029.28,0.959,-0.26,-0.497,-0.132,0.73,-0.065,-152.38418711046916,-59.67747750734409,-152.52666888298359,-59.20156958405415,-62.87848991829135,-72.91539451539803,-107.70257940063746,-66.0584820497261
1029.336,0.949,-0.266,-0.5,-0.216,-0.415,-0.027,-151.98702257693284,-59.17169052271351,-152.45261502921326,-59.209920569430736,-64.5710546880204,-73.1439091366895,-108.51183485861682,-66.17691485306011
1029.392,0.953,-0.261,-0.495,0.043,-0.369,-0.08,-152.19854122006586,-59.578861758393,-152.40719139958404,-59.27857898273173,-66.27005801375839,-73.36399215561184,-109.33862470667121,-66.32128556917178
1029.448,0.954,-0.256,-0.5,0.074,0.104,0.172,-152.88755357204425,-59.50994558247634,-152.4741253672211,-59.30591878765101,-67.93907876329965,-73.55076241710978,-110.20660206526037,-66.42834060238039
1029.504,0.958,-0.265,-0.498,-0.224,-0.026,0.019,-151.98128385290926,-59.50831401948037,-152.40551789967142,-59.33664125532765,-69.67769420904322,-73.72804221305756,-111.04160605435732,-66.53234173419261
1029.561,0.956,-0.255,-0.5,0.089,0.081,-0.111,-152.97841840882296,-59.58265872028987,-152.4862048865431,-59.37069486097372,-71.42794696079281,-73.90645902259858,-111.95707592366796,-66.63857694178616
1029.617,0.967,-0.262,-0.485,0.081,-0.041,0.05,-151.6218080390183,-60.31448337017254,-152.34511817352993,-59.522511399954126,-73.2096000773771,-74.05686823788153,-112.77735912545351,-66.78968981891782
1029.674,0.938,-0.27,-0.504,0.272,-0.018,-0.073,-151.82140989004085,-58.63525691545484,-152.2418367617638,-59.391471688756084,-75.05506811646681,-74.18819985800766,-113.64845243911532,-66.78983577338187
1029.73,0.948,-0.257,-0.503,-0.086,-1.98,-0.088,-152.93594831650006,-59.21200691325614,-152.34433298209646,-59.45785518206822,-77.28092158710825,-74.34008111814195,-114.81262728460236,-66.89896815010509
1029.786,0.956,-0.279,-0.5,0.074,-0.049,0.301,-150.8384827807957,-59.08147834449998,-152.0973763241442,-59.39992335743965,-79.17617098204397,-74.40981571826434,-115.63677365309408,-66.904869537852
1029.842,0.954,-0.261,-0.515,0.104,-0.537,-0.233,-153.12428536342998,-58.817654570679984,-152.23737110475105,-59.329719853255135,-81.16070018476913,-74.51278529129915,-116.69903564476009,-66.92125257227714
1029.899,0.954,-0.261,-0.503,-0.056,-0.194,0.027,-152.57580263647642,-59.28936265257626,-152.28417338734914,-59.32426204039693,-83.14305441379373,-74.58159884520833,-117.71361390057143,-66.95293044280263
1029.956,0.952,-0.26,-0.508,-0.086,-0.033,-0.004,-152.89613292503924,-59.059713193257295,-152.37837672070538,-59.275303514547154,-85.10820758153031,-74.63409124416468,-118.74329215111784,-66.95469737935592
1030.012,0.956,-0.257,-0.493,0.036,0.196,0.118,-152.46705106531846,-59.819677729982374,-152.38874189757726,-59.341589991144524,-86.98793274316148,-74.66517603442082,-119.68833732036937,-67.00338301278268
1030.069,0.958,-0.258,-0.5,-0.064,0.173,-0.103,-152.70626595652075,-59.573981218096854,-152.44076223312626,-59.36371466960421,-88.91633892882508,-74.69277775757534,-120.67855058097567,-67.02824621358977
1030.125,0.956,-0.258,-0.506,0.135,0.119,0.065,-152.98381027613473,-59.28459941574055,-152.52133514253356,-59.34125964873882,-90.81540759241078,-74.69376358310642,-121.66837136747216,-67.01751161592261
1030.181,0.955,-0.266,-0.496,0.005,0.318,0.072,-151.79577132837227,-59.48721722940476,-152.41177310505455,-59.34446397694584,-92.67150710573938,-74.67074564805341,-122.54164010539697,-67.00760481249962
1030.238,0.959,-0.266,-0.504,0.127,-0.026,0.057,-152.17590361574673,-59.279014813109946,-152.36814924212618,-59.331726212317406,-94.61788488895432,-74.63226665696554,-123.49301706554024,-66.98199643464147
1030.294,0.953,-0.262,-0.505,0.089,-0.163,-0.057,-152.5791792802091,-59.16376697034636,-152.3953297424387,-59.30883727753623,-96.55167627513296,-74.58594119932943,-124.47350300878583,-66.94738923843283
1030.351,0.962,-0.261,-0.496,0.043,-0.194,0.027,-152.24622055727315,-59.77411922549469,-152.3693687580822,-59.38627799206483,-98.5066654007409,-74.52055829940718,-125.43801707941155,-66.95341814573601
1030.407,0.951,-0.265,-0.507,-0.033,-0.079,0.126,-152.40472137529142,-58.97078357768839,-152.37509396092483,-59.322489763645486,-100.38685675441795,-74.42798204179432,-126.38097535767139,-66.87523590271991
1030.463,0.961,-0.266,-0.501,0.028,-0.362,-0.057,-152.03446347723525,-59.44850430249704,-152.31885250295687,-59.35444178989169,-102.29782232499694,-74.32860136931795,-127.30833741397691,-66.84152157960482
1030.52,0.96,-0.263,-0.502,0.158,-0.064,-0.019,-152.34975997087932,-59.44517388002012,-152.31240684302097,-59.367602623418634,-104.1503467580643,-74.21566692308865,-128.23137680054265,-66.79163477325363
1030.576,0.955,-0.259,-0.504,-0.148,0.142,0.027,-152.80187205149088,-59.31700474517087,-152.39332284291046,-59.34943377351161,-105.92196996407525,-74.0930138246558,-129.15764640349286,-66.7212237990837
1030.632,0.951,-0.266,-0.503,0.013,0.02,0.057,-152.1289033754148,-59.10702005482766,-152.35127375160872,-59.30646711643639,-107.66574012958189,-73.94400539760493,-130.0085069405953,-66.62523625702066
1030.688,0.952,-0.256,-0.506,0.081,-0.125,0.065,-153.1638351704382,-59.219218316600724,-152.47390927147347,-59.29305715655109,-109.41191388869478,-73.7894507526058,-130.94291158008411,-66.54125395457845
1030.745,0.958,-0.255,-0.504,-0.041,0.028,-0.126,-153.1627618941849,-59.476383283803784,-152.58916903888573,-59.314349448862934,-111.14736821079254,-73.63445623923766,-131.86826862483912,-66.4744028440503
1030.801,0.952,-0.26,-0.503,0.005,0.066,0.141,-152.6656204546129,-59.256980592252305,-152.61054559378107,-59.297424908510706,-112.77948850840107,-73.44824606944442,-132.69501705109107,-66.37283548897756
1030.857,0.953,-0.26,-0.504,0.196,0.043,-0.057,-152.7120120544845,-59.24393641638296,-152.62734289984007,-59.281841474796764,-114.3825905775602,-73.25990261034183,-133.50496673870015,-66.2708720425693
1030.913,0.953,-0.265,-0.504,-0.163,-0.178,0.065,-152.26489133756212,-59.141499505696196,-152.58868386244498,-59.262656619478314,-115.98499315763003,-73.04231651655928,-134.2868385100375,-66.1524865680188
1030.97,0.955,-0.258,-0.513,-0.086,-0.003,0.103,-153.30108042279502,-58.98228573307681,-152.71332816391606,-59.21189254420001,-117.55450560043417,-72.81975748142915,-135.13391688217513,-66.01582501281459
1031.026,0.951,-0.266,-0.505,0.013,0.058,-0.042,-152.22275820678058,-59.02861191292299,-152.64846433630873,-59.171663518075576,-119.03260372094215,-72.58861557385629,-135.84053402862543,-65.88013954596593
1031.083,0.957,-0.262,-0.502,-0.033,0.051,0.37,-152.43938777261386,-59.387152995900145,-152.62654718669404,-59.19323330470508,-120.47288380423927,-72.32940819602332,-136.54971549546667,-65.7613207503642
1031.139,0.953,-0.26,-0.502,-0.086,0.104,0.072,-152.61908305950791,-59.32288382538857,-152.63711670494345,-59.20067571315234,-121.87234965621484,-72.08227437806508,-137.25473318057914,-65.64147504560871
1031.196,0.969,-0.256,-0.512,-0.056,-0.262,-0.019,-153.434948822922,-59.42767650149545,-152.77355599201087,-59.24196847025248,-123.33752945040793,-71.8241153489045,-138.0555427212094,-65.53304190957849
1031.252,0.953,-0.262,-0.509,-0.041,0.028,-0.042,-152.76354464007204,-59.00651439555862,-152.78733790413807,-59.198091176523974,-124.67287488264249,-71.55768234202928,-138.7301063933903,-65.37788675927663
1031.309,0.955,-0.258,-0.509,0.112,0.043,0.141,-153.1206334363581,-59.1398862756882,-152.8481014854641,-59.17962049709288,-125.97526791060515,-71.27529550676965,-139.41168469803463,-65.22745800193127
1031.365,0.967,-0.259,-0.503,0.059,-0.133,-0.157,-152.75558406745677,-59.66927727852707,-152.84635439355324,-59.255797034258066,-127.27487228875842,-71.00103152468841,-140.06061334115583,-65.12841427947325
1031.421,0.956,-0.255,-0.507,-0.071,-0.178,-0.027,-153.29949805986044,-59.30512364533273,-152.93606653763604,-59.2682237941514,-128.54151201012456,-70.71119801625933,-140.7387892738803,-64.98971090520537
1031.477,0.956,-0.262,-0.494,-0.064,0.18,-0.057,-152.0601140423526,-59.6760288939412,-152.81898710206846,-59.32063638838538,-129.70457244388615,-70.41923943720785,-141.26177977297732,-64.86993791279662
1031.533,0.96,-0.263,-0.508,-0.003,-0.01,0.027,-152.62865019102762,-59.21021825292713,-152.80045099738598,-59.30343234930695,-130.84682680812514,-70.10909933466105,-141.82363890275556,-64.706265841984
1031.589,0.964,-0.26,-0.5,-0.232,-0.155,-0.134,-152.52556837372288,-59.68919069484707,-152.77787881718405,-59.37044738052361,-132.01030771068426,-69.79989755751066,-142.39409326393417,-64.58517246901714
1031.646,0.953,-0.26,-0.497,0.097,0.119,0.05,-152.38418711046916,-59.52052419683472,-152.71878649920913,-59.390187489405115,-133.07966972314338,-69.47632479434361,-142.89922811117626,-64.43325614187437
1031.702,0.949,-0.262,-0.507,-0.186,-0.033,-0.08,-152.67164895763867,-58.97878031326959,-152.72470973313617,-59.32974298546701,-134.13509175460453,-69.14671582756128,-143.42990074387035,-64.23822940651414
1031.759,0.961,-0.262,-0.503,0.005,0.066,0.095,-152.4861306992901,-59.45255819548598,-152.6909742330921,-59.345743487707644,-135.14575588844698,-68.80762607508476,-143.91836506076953,-64.0766847813962
1031.815,0.951,-0.265,-0.496,0.066,-0.239,0.149,-151.88556009501372,-59.4029791292136,-152.56302172437617,-59.366775531063126,-136.10588159518161,-68.44668106849362,-144.3344516597789,-63.90672829977837
1031.871,0.956,-0.27,-0.504,0.143,1.875,-0.111,-151.82140989004085,-59.11714690007157,-152.43554064236147,-59.24000838697645,-136.84347557356745,-68.17148577940252,-144.63950810796445,-63.70574708318948
1031.927,0.946,-0.26,-0.498,-0.003,0.02,0.34,-152.43146294556178,-59.29584731008289,-152.42583295351088,-59.24782593767091,-137.72651516770694,-67.81088737522963,-145.0761740606089,-63.52935665645027
1031.984,0.952,-0.26,-0.499,0.02,-0.003,0.095,-152.4785898201591,-59.41508007860248,-152.42388561505211,-59.27476803951154,-138.63100007542988,-67.45126618626516,-145.527442845241,-63.36301711288835
1032.04,0.958,-0.261,-0.514,-0.056,0.013,-0.164,-153.0793550673109,-58.96288477360854,-152.52129347092998,-59.22657203970567,-139.52668996697017,-67.10361223577506,-146.02399171895007,-63.165092137740366
1032.096,0.957,-0.273,-0.501,0.036,0.089,0.027,-151.413583882566,-59.197090499970805,-152.3411813026502,-59.217010319646974,-140.30240444337366,-66.72841335849708,-146.32179287301193,-62.972711839072026
1032.153,0.949,-0.281,-0.501,0.02,-0.201,0.141,-150.71288133215663,-58.813768138979626,-152.0709057145449,-59.16206792675797,-141.02818213005798,-66.30888621411896,-146.54954392230144,-62.73547707043846
1032.209,0.958,-0.264,-0.502,-0.056,-0.14,0.08,-152.26027883643468,-59.37225137656088,-152.07938382370602,-59.197848913561174,-141.82693842600764,-65.9337639123146,-146.95316112485682,-62.56580641293789
1032.266,0.949,-0.262,-0.504,-0.01,-0.148,0.034,-152.53272766139187,-59.097025950127765,-152.12866182430372,-59.18653482768033,-142.61688694236594,-65.54807013295479,-147.37277438333484,-62.36730248031756
1032.322,0.956,-0.26,-0.501,-0.109,-0.209,-0.004,-152.57239924249382,-59.44128142178788,-152.1850320689207,-59.23337480182308,-143.40510834143865,-65.17289446014894,-147.79507020517968,-62.203134630986014
1032.379,0.956,-0.263,-0.508,0.089,0.005,0.187,-152.62865019102762,-59.10491451872734,-152.2352258764727,-59.211415632649974,-144.12088442912867,-64.78358579374151,-148.17805515280068,-61.99750071319574
1032.435,0.968,-0.264,-0.508,-0.094,-0.178,0.164,-152.53977511271094,-59.39869887554473,-152.27588363140805,-59.2470502767729,-144.84356273805614,-64.39695430168084,-148.5597231847321,-61.82200228922687
1032.491,0.957,-0.261,-0.495,0.12,-0.003,-0.042,-152.19854122006586,-59.683540931723854,-152.248490209027,-59.3150963071781,-145.54266629128492,-64.02349910323007,-148.89557825015595,-61.66929770520409
1032.547,0.956,-0.261,-0.501,0.158,-0.117,0.126,-152.48237518212156,-59.42078417546997,-152.2679593719568,-59.33957638222857,-146.20951541161372,-63.63487796331992,-149.23873739178526,-61.48722717277425
1032.603,0.954,-0.26,-0.5,-0.148,0.272,0.095,-152.52556837372288,-59.42821485295799,-152.3074908792697,-59.34373387361202,-146.85915869375128,-63.264567885972106,-149.5833247865105,-61.30415087979206
1032.66,0.954,-0.259,-0.51,0.013,-0.01,0.218,-153.07657489125808,-59.05402684023594,-152.42205126235902,-59.302304753766236,-147.50692924954467,-62.868923557709,-149.96449025595183,-61.085614155737616
1032.716,0.967,-0.264,-0.502,0.143,-0.285,-0.157,-152.26027883643468,-59.60658992692417,-152.38948213605534,-59.36530958348065,-148.15834776144544,-62.475005733426904,-150.2739149487504,-60.920157658453775
1032.772,0.963,-0.26,-0.502,-0.01,0.035,0.034,-152.61908305950791,-59.58466330963677,-152.42471473306168,-59.401950781473,-148.7978230784657,-62.09872177289401,-150.6112689057637,-60.75033627718351
1032.828,0.961,-0.26,-0.507,-0.056,0.119,0.218,-152.85031830221683,-59.33617114704271,-152.49472968742543,-59.39129057743205,-149.39290667160824,-61.71453222732207,-150.94381817951682,-60.55291140237706
1032.884,0.954,-0.259,-0.51,0.127,-0.018,0.233,-153.07657489125808,-59.05402684023594,-152.5838733876678,-59.34382230796822,-149.95610891939637,-61.3161629428641,-151.2699911535321,-60.32999262541616
1032.94,0.958,-0.263,-0.502,-0.048,-0.209,-0.088,-152.34975997087932,-59.39283774027095,-152.55706859978082,-59.3636641186046,-150.50916550142028,-60.90364128008628,-151.53311705060054,-60.13365269934545
1032.996,0.959,-0.261,-0.497,-0.056,-0.033,0.019,-152.29374956733488,-59.6568153879616,-152.52420644208698,-59.413918346324614,-151.08568046561265,-60.51372820189419,-151.80494345384983,-59.9638232741094
1033.052,0.955,-0.259,-0.506,0.097,0.058,-0.195,-152.89401339733217,-59.23810301994243,-152.5818049267813,-59.38816608342227,-151.66338659162548,-60.13346976493512,-152.1225957592034,-59.760817924178696
1033.109,0.958,-0.254,-0.511,-0.048,0.02,-0.263,-153.56965652028003,-59.2192648084668,-152.74676933051322,-59.36396223081737,-152.4123603097209,-59.803106593422825,-152.57956482011707,-59.5835344121201
1033.165,0.959,-0.258,-0.501,0.081,-0.01,-0.088,-152.75288842974936,-59.560587547311115,-152.7579417095754,-59.397495691378516,-152.9607259532083,-59.41457658720917,-152.85933383139184,-59.406036139293846
1033.221,0.951,-0.268,-0.503,-0.003,-0.064,-0.24,-151.95116701244223,-59.06543608283167,-152.64487555731264,-59.35166931667136,-151.94541559397618,-59.0584718074937,-152.29514557564443,-59.20507056208253
1033.277,0.953,-0.261,-0.5,-0.071,0.005,-0.019,-152.43544106570084,-59.3813164701771,-152.62302810351727,-59.357065461835454,-152.6887069943617,-59.5423490874572,-152.65586754893948,-59.44970727464633
1033.334,0.953,-0.252,-0.497,-0.071,-0.064,-0.126,-153.1130658075233,-59.68437469918478,-152.71004291752482,-59.41299951882837,-153.78968645140603,-59.899685227808746,-153.24986468446542,-59.65634237331856
1033.39,0.959,-0.262,-0.498,0.02,0.043,0.057,-152.25094388478502,-59.59676042770732,-152.64639909764688,-59.443558978654,-152.60497945915012,-59.67080058065454,-152.6256892783985,-59.55717977965428
1033.446,0.952,-0.26,-0.497,-0.056,-0.064,-0.088,-152.38418711046916,-59.49422242849232,-152.6138995537799,-59.459526659839206,-151.99550026378898,-59.16616693330182,-152.30469990878444,-59.31284679657051
1033.502,0.959,-0.266,-0.501,-0.079,0.081,0.218,-152.03446347723525,-59.396226055646494,-152.53043799648228,-59.45099276511175,-152.06688780767016,-59.68547765930846,-152.29866290207622,-59.568235212210105
1033.558,0.959,-0.262,-0.5,0.043,-0.148,-0.095,-152.34546152475534,-59.51812533392197,-152.49901098581748,-59.47333670026181,-152.68569212412612,-59.31311016442724,-152.5923515549718,-59.39322343234453
1033.614,0.953,-0.273,-0.502,-0.003,0.15,0.011,-151.4615601306877,-59.05257363330874,-152.33405092310838,-59.40513030863812,-151.53234501433622,-59.07679564285237,-151.9331979687223,-59.24096297574525
1033.671,0.953,-0.26,-0.514,0.097,-0.041,0.042,-153.16804494837947,-58.85017062823002,-152.45149804592137,-59.32158734334548,-152.5561355033723,-58.93355361514014,-152.50381677464685,-59.127570479242806
1033.727,0.955,-0.26,-0.487,-0.102,0.127,0.095,-151.903092914528,-59.9689904837802,-152.3668128098686,-59.41557827197094,-152.26248364347612,-59.39884845145617,-152.31464822667238,-59.40721336171356
1033.784,0.955,-0.263,-0.497,0.036,-1.987,0.034,-152.11332360271734,-59.51073183294752,-152.31780870651087,-59.52879638068154,-151.80519308407696,-59.7016509934484,-152.06150089529393,-59.61522368706497
1033.84,0.953,-0.263,-0.498,0.089,-0.14,-0.004,-152.1609079922253,-59.41877771657119,-152.27991035771606,-59.52063755203587,-152.31107916335702,-59.29206240429462,-152.29549476053654,-59.406349978165245
1033.896,0.952,-0.259,-0.501,-0.056,-0.087,-0.088,-152.66257035409149,-59.356484338783005,-152.33294473569893,-59.500538582071485,-153.4953017375964,-59.499755422179206,-152.91412323664767,-59.500147002125345
1033.952,0.952,-0.262,-0.509,0.104,-0.163,-0.05,-152.76354464007204,-58.97995506579145,-152.38890237233193,-59.42653287384607,-152.8098656192769,-59.00275447476499,-152.59938399580443,-59.214643674305535
1034.009,0.95,-0.261,-0.5,0.028,-0.049,0.011,-152.43544106570084,-59.30207617219693,-152.39112079059365,-59.40560997382651,-152.29290303368526,-59.41132210509094,-152.34201191213947,-59.40846603945872
1034.065,0.954,-0.257,-0.509,0.135,0.089,-0.034,-153.21026064329752,-59.133419670837156,-152.51072759390945,-59.35396981120741,-153.1343781057294,-59.15954103247163,-152.82255284981943,-59.25675542183952
1034.122,0.955,-0.264,-0.495,0.158,-0.018,0.072,-151.92751306414706,-59.56855190112799,-152.4139303933595,-59.38218965431132,-152.29204416147937,-59.43952642761855,-152.35298727741943,-59.41085804096494
1034.178,0.955,-0.258,-0.508,0.036,0.211,0.042,-153.07516843706014,-59.17932818274631,-152.5152213817885,-59.33542412499319,-153.09831697283389,-59.176051077155606,-152.8067691773112,-59.2557376010744
1034.234,0.953,-0.263,-0.505,-0.125,-0.125,0.042,-152.48985672320333,-59.143328044332925,-152.52066652472186,-59.304830844993454,-151.9415209634896,-59.10352593623627,-152.23109374410575,-59.20417839061486
1034.29,0.959,-0.264,-0.5,-0.086,0.081,0.111,-152.16594605944917,-59.476830369109564,-152.47204626723828,-59.3205337320322,-152.25314266742456,-59.63393200495501,-152.3625944673314,-59.4772328684936
1034.346,0.955,-0.264,-0.494,0.104,0.028,0.118,-151.87937547453814,-59.60791520548394,-152.3742450874354,-59.35830799009225,-151.05390479145566,-59.5460118423694,-151.71407493944554,-59.452159916230826
1034.402,0.955,-0.266,-0.514,0.219,-0.056,0.134,-152.63799556229733,-58.7832427464864,-152.40164445350817,-59.266304614866556,-151.73374938992444,-59.20896123497735,-152.0676969217163,-59.237632924921954
1034.459,0.958,-0.259,-0.504,-0.064,0.188,0.118,-152.80187205149088,-59.39580866751428,-152.46611907125654,-59.269283216680385,-152.9079601289275,-59.42268687550868,-152.68703960009202,-59.34598504609453
1034.515,0.958,-0.259,-0.507,-0.003,0.043,0.103,-152.93986799890754,-59.27765771152457,-152.5422527150808,-59.26141160313547,-153.00529630613894,-58.928552558229136,-152.77377451060988,-59.0949820806823
1034.571,0.958,-0.25,-0.514,0.127,-2.01,-0.08,-154.06257701453984,-59.178353955711124,-152.78081155146444,-59.336101125335425,-154.21727897955623,-59.096041394089994,-153.49904526551035,-59.216071259712706
1034.627,0.958,-0.26,-0.502,0.127,0.028,0.042,-152.61908305950791,-59.45428025564709,-152.7655141528449,-59.344986763858195,-153.27580018607776,-59.30802955940116,-153.02065716946134,-59.326508161629675
1034.683,0.953,-0.262,-0.498,0.005,-0.27,0.126,-152.25094388478502,-59.43956023291459,-152.69906797272913,-59.365175959628274,-152.24275883928374,-59.42398811986749,-152.47091340600645,-59.39458203974788
1034.74,0.96,-0.262,-0.505,-0.193,-0.209,0.042,-152.5791792802091,-59.34799535143526,-152.70050678792194,-59.36558558139325,-153.19862638001263,-59.19701677603365,-152.94956658396728,-59.28130117871345
1034.796,0.955,-0.259,-0.5,0.036,-0.102,-0.225,-152.61584336600367,-59.47499809375458,-152.69527438456402,-59.38071050468584,-152.51941509726535,-59.53110548502299,-152.6073447409147,-59.455907994854414
1034.852,0.954,-0.26,-0.513,0.005,0.074,-0.057,-153.12307751998074,-58.916048382948006,-152.7716203235771,-59.29783303599326,-152.9435759957088,-59.10803717498317,-152.85759815964298,-59.20293510548821
1034.908,0.954,-0.264,-0.508,-0.041,-0.049,0.05,-152.53977511271094,-59.031682991338144,-152.74924722874871,-59.248679770774714,-151.79225795062243,-58.88229631592864,-152.27075258968557,-59.06548804335168
1034.964,0.938,-0.26,-0.503,-0.033,0.066,0.095,-152.6656204546129,-58.88273030152107,-152.7480048493567,-59.176453010175464,-152.90838215419754,-58.882604141519266,-152.82819350177712,-59.029528575847365
1035.02,0.948,-0.261,-0.502,0.005,-0.224,-0.157,-152.52916216281136,-59.16993276089162,-152.72293366913738,-59.17194500269555,-152.40426803242843,-59.273051479744126,-152.5636008507829,-59.22249824121984
1035.076,0.956,-0.26,-0.496,-0.025,-0.125,-0.103,-152.336761672182,-59.63869722147769,-152.671198277873,-59.2373133086488,-152.32752328529324,-59.768650434230445,-152.4993607815831,-59.50298187143962
1035.132,0.957,-0.261,-0.509,-0.079,0.158,0.057,-152.85260364302823,-59.1324965012339,-152.708457240023,-59.202848159411346,-152.68822156403257,-59.33199263507311,-152.69833940202778,-59.267420397242226
1035.189,0.953,-0.263,-0.505,-0.071,0.035,0.202,-152.48985672320333,-59.143328044332925,-152.68371882902727,-59.18045701482571,-152.12931546835043,-58.80468870411184,-152.40651714868886,-58.99257285946878
1035.245,0.954,-0.278,-0.495,-0.132,0.051,-0.218,-150.6807295119277,-59.24324537231475,-152.3785197095516,-59.17650264589963,-151.31544610999669,-59.069800668097315,-151.84698290977414,-59.12315165699847
1035.301,0.958,-0.259,-0.485,-0.262,-0.094,0.057,-151.89686377878917,-60.147252835731976,-152.3043180133262,-59.323148153727345,-151.6102915646135,-59.59244088082685,-151.95730478896985,-59.457794517277094
1035.358,0.957,-0.266,-0.505,0.066,-0.087,-0.294,-152.22275820678058,-59.187377557831425,-152.273782791315,-59.30229829522364,-152.21958158325413,-59.209720483214184,-152.24668218728456,-59.25600938921892
1035.414,0.954,-0.263,-0.508,-0.064,-0.018,0.042,-152.62865019102762,-59.05201890372504,-152.318119666409,-59.25909674305292,-152.98594901061682,-58.91037875431514,-152.65203433851292,-59.084737748684034
1035.47,0.952,-0.259,-0.501,-0.117,-0.003,-0.057,-152.66257035409149,-59.356484338783005,-152.36605479186565,-59.268207938247514,-152.6687498631993,-59.3651093111302,-152.51740232753247,-59.316658624688856
1035.526,0.951,-0.256,-0.496,-0.186,-0.079,0.011,-152.7004277886672,-59.59013842473234,-152.4182750885456,-59.317095170788534,-152.75539769984908,-59.87890243107731,-152.58683639419735,-59.59799880093292
1035.582,0.95,-0.251,-0.507,0.059,-0.071,-0.08,-153.6614131752632,-59.225995940778404,-152.60470501478886,-59.30290287851913,-153.3104645058613,-59.485868249804874,-152.95758476032506,-59.394385564162
1035.638,0.959,-0.266,-0.51,0.02,0.18,-0.21,-152.4548677932286,-59.044993689208006,-152.5827700334344,-59.24989755532945,-152.45595149132103,-59.05543463328697,-152.51936076237772,-59.15266609430821
1035.694,0.939,-0.265,-0.514,-0.086,-0.064,-0.141,-152.72598850946667,-58.372794231475595,-152.6108840691545,-59.10901285219707,-152.66664990796917,-58.57390343569011,-152.63876698856183,-58.84145814394359
1035.75,0.962,-0.258,-0.508,-0.064,0.081,-0.042,-153.07516843706014,-59.363118642330356,-152.6895675707717,-59.13299663501053,-152.9410324513148,-59.10617432433405,-152.81530001104323,-59.11958547967229
1035.806,0.959,-0.262,-0.507,-0.071,0.02,0.057,-152.67164895763867,-59.24337504288509,-152.69603381256692,-59.13925599310146,-152.26079766848756,-59.448151704123745,-152.47841574052723,-59.2937038486126
1035.862,0.958,-0.262,-0.506,-0.102,0.089,-0.21,-152.62548617392648,-59.25632252526275,-152.69545561828684,-59.14423756928299,-152.9365461195371,-59.11031871029755,-152.81600086891197,-59.12727813979027
1035.919,0.947,-0.251,-0.502,0.028,-0.087,-0.103,-153.434948822922,-59.34629273988085,-152.81598431680274,-59.171886366082674,-153.8741021775044,-59.54304893468725,-153.34504324715357,-59.35746765038496
1035.975,0.953,-0.261,-0.499,-0.033,1.883,-0.019,-152.3883591816724,-59.42079544451661,-152.76070592675143,-59.11562483639609,-152.60755030479368,-59.54119897660517,-152.68412811577255,-59.328411906500634
1036.031,0.961,-0.261,-0.503,0.104,0.127,0.019,-152.57580263647642,-59.47295967892054,-152.73394342121128,-59.16199219249106,-152.3537740907438,-59.02189089440583,-152.54385875597754,-59.09194154344844
1036.087,0.957,-0.258,-0.503,-0.277,-0.064,-0.019,-152.84569338560962,-59.42929925883156,-152.77052028360487,-59.20593068006887,-152.98652831164299,-59.524839686294655,-152.87852429762393,-59.36538518318176
1036.143,0.953,-0.26,-0.504,0.12,0.15,-0.073,-152.7120120544845,-59.24393641638296,-152.76219952070772,-59.205611190718564,-152.47790615906683,-59.01693665564346,-152.62005283988728,-59.11127392318102
1036.2,0.963,-0.263,-0.494,-0.148,-0.239,-0.126,-151.96966887497527,-59.836997907352625,-152.65041677553785,-59.317881723602945,-152.21926509149108,-59.479226205408025,-152.43484093351447,-59.39855396450548
1036.256,0.961,-0.255,-0.5,0.097,0.043,-0.034,-152.97841840882296,-59.712987521416835,-152.69764199675225,-59.38393538420208,-153.3013272156498,-59.814465090999946,-152.999484606201,-59.59920023760101
1036.312,0.955,-0.261,-0.499,0.043,-0.194,-0.218,-152.3883591816724,-59.473377462780576,-152.649374055056,-59.41586275725071,-152.310026878701,-59.43013509788378,-152.4797004668785,-59.42299892756724
1036.369,0.955,-0.259,-0.509,0.028,-0.102,-0.134,-153.031148135334,-59.11987169342604,-152.70855811118267,-59.38334767845779,-153.0704025352951,-59.107207990773276,-152.8894803232389,-59.245277834615536
1036.425,0.958,-0.258,-0.507,-0.155,0.089,0.141,-153.0295609213491,-59.297737921706414,-152.76964306846946,-59.37246400162623,-152.9558312499565,-59.60492130422305,-152.862737159213,-59.48869265292464
1036.482,0.957,-0.261,-0.494,-0.048,-0.262,-0.027,-152.15071090773958,-59.72301350826711,-152.67963043484139,-59.44671610302459,-151.932127409607,-59.744006070850176,-152.3058789222242,-59.59536108693739
1036.539,0.956,-0.265,-0.499,-0.079,0.02,0.072,-152.02892141757218,-59.41669563503114,-152.58117342895636,-59.44978687468537,-152.0760763722126,-59.24524652092292,-152.3286249005845,-59.347516697804146
1036.595,0.956,-0.257,-0.504,-0.018,-0.041,0.034,-152.98202719396082,-59.383749043820906,-152.64114246114863,-59.449612861549895,-153.25271145816268,-59.4208065626345,-152.94692695965566,-59.4352097120922
1036.652,0.96,-0.26,-0.499,0.043,0.035,-0.011,-152.4785898201591,-59.624673570681416,-152.6121368755549,-59.48351225570896,-152.33642422308043,-59.662611739975354,-152.47428054931765,-59.57306199784216
1036.708,0.954,-0.26,-0.498,-0.086,0.005,0.042,-152.43146294556178,-59.50724645842788,-152.58523774538358,-59.4960333667981,-152.61740405656838,-59.19980520751101,-152.60132090097596,-59.347919287154554
1036.764,0.958,-0.263,-0.495,-0.17,1.883,-0.256,-152.01770468790866,-59.6679054874714,-152.49985312222847,-59.44349082201526,-152.05061595647234,-59.701973136517644,-152.2752345393504,-59.57273197926645
1036.82,0.951,-0.264,-0.503,-0.025,1.883,-0.011,-152.30722479706333,-59.148396239115456,-152.46256848489813,-59.31921808369859,-152.1913996740238,-59.31947454709945,-152.32698407946097,-59.31934631539902
1036.876,0.953,-0.267,-0.504,-0.079,0.043,-0.118,-152.08706154272343,-59.10015853267921,-152.39761884683261,-59.292224212979264,-151.9550163367953,-58.797489809497804,-152.17631759181396,-59.044857011238534
1036.932,0.953,-0.259,-0.5,-0.041,-0.201,-0.004,-152.61584336600367,-59.422417718080645,-152.4217523258271,-59.330113539594386,-152.50935469380798,-59.30293203386155,-152.46555350981754,-59.31652278672797
1036.988,0.958,-0.263,-0.503,-0.125,0.066,-0.027,-152.3966047261581,-59.35360125612978,-152.41320296880065,-59.339403809153225,-151.78867508950532,-59.62934099122418,-152.10093902915298,-59.484372400188704
1037.045,0.954,-0.263,-0.5,-0.056,-0.155,0.118,-152.25562983051745,-59.366354390608294,-152.38020468675927,-59.36008129732624,-152.4323201376846,-59.25442596184152,-152.40626241222193,-59.30725362958388
1037.101,0.95,-0.263,-0.5,0.265,0.142,-0.218,-152.25562983051745,-59.26069936653648,-152.33631684780426,-59.34658894632033,-151.3125532614899,-59.3027997461952,-151.8244350546471,-59.324694346257765
1037.157,0.958,-0.265,-0.514,-0.01,0.165,0.072,-152.72598850946667,-58.882949469613,-152.38577582813164,-59.27381816432274,-152.15476102805766,-59.05821630209898,-152.27026842809465,-59.16601723321086
1037.214,0.958,-0.265,-0.499,0.219,-0.087,0.065,-152.02892141757218,-59.4691170398964,-152.30932123383363,-59.31355631755959,-151.98724166640835,-59.55128917013089,-152.14828145012098,-59.43242274384524
1037.27,0.953,-0.263,-0.509,-0.254,-0.033,0.21,-152.6746279197141,-58.98626888476559,-152.36701887649872,-59.26949480812633,-152.4820636349207,-59.138146766092056,-152.4245412557097,-59.203820787109194
1037.326,0.958,-0.261,-0.492,-0.003,-0.064,-0.034,-152.05459474947756,-59.828008588317026,-152.30869082552732,-59.36411569392444,-152.2031558240832,-59.59875868413364,-152.25592332480528,-59.48143718902904
1037.382,0.938,-0.262,-0.499,-0.064,-0.224,-0.172,-152.29827694532324,-59.00032426496779,-152.2986154689508,-59.32495984565311,-152.3103615877696,-59.092228484445215,-152.3044885283602,-59.20859416504916
1037.438,0.956,-0.26,-0.502,-0.041,-0.033,-0.057,-152.61908305950791,-59.40184387190384,-152.33960422218252,-59.34338434643339,-152.83890666647036,-59.609869167945625,-152.58925544432645,-59.47662675718951
1037.494,0.953,-0.259,-0.501,0.097,0.028,0.095,-152.66257035409149,-59.38285592461305,-152.37694712334797,-59.35355263476415,-152.42145651533258,-59.085108212531566,-152.39920181934028,-59.21933042364786
1037.55,0.954,-0.259,-0.501,-0.117,-0.102,0.065,-152.66257035409149,-59.40918655344064,-152.42103037881316,-59.372659605128156,-152.82111360177493,-59.60465904802661,-152.62107199029404,-59.488659326577384
1037.606,0.958,-0.258,-0.501,-0.109,-0.102,0.08,-152.75288842974936,-59.53447076822963,-152.47415867092988,-59.40881538644392,-152.32929021683188,-59.08004534984159,-152.40172444388088,-59.24443036814276
1037.662,0.957,-0.263,-0.503,0.028,0.188,-0.05,-152.3966047261581,-59.32735273470995,-152.45880950529434,-59.39408594745861,-152.4675320080566,-59.61500594473542,-152.46317075667548,-59.50454594609702
1037.718,0.961,-0.258,-0.501,-0.148,-2.01,-0.034,-152.75288842974936,-59.61269982267288,-152.5097425414326,-59.52972728421863,-153.70799055378149,-59.50231594396576,-153.10886654760702,-59.516021614092196
1037.774,0.956,-0.262,-0.498,0.059,0.02,-0.172,-152.25094388478502,-59.518343515527505,-152.46599582616938,-59.53410651819881,-152.57456015250966,-59.521674995455136,-152.52027798933952,-59.52789075682698
1037.83,0.939,-0.261,-0.495,-0.025,1.852,0.072,-152.19854122006586,-59.20728682736518,-152.42293885603848,-59.402233862803435,-151.88611649325296,-59.104112147498476,-152.15452767464572,-59.253173005150956
1037.886,0.952,-0.267,-0.497,0.043,-0.049,0.004,-151.7542701757922,-59.34795562733659,-152.31149396073096,-59.4012407378647,-151.62913616362678,-59.572546018473375,-151.97031506217888,-59.486893378169036
1037.943,0.955,-0.263,-0.505,0.097,0.081,-0.011,-152.48985672320333,-59.19618852350594,-152.32575245781592,-59.36985709606524,-152.36241810422953,-59.253570442558434,-152.34408528102273,-59.31171376931184
1038.0,0.957,-0.262,-0.508,-0.033,0.127,0.141,-152.71766824336646,-59.15155483537706,-152.3815194925986,-59.33255108616353,-153.22026172882804,-59.002741667638944,-152.80089061071334,-59.16764637690123
1038.056,0.957,-0.263,-0.503,-0.117,1.89,0.08,-152.3966047261581,-59.32735273470995,-152.38482392845165,-59.244205206256034,-152.37225308605392,-59.39679040991513,-152.37853850725278,-59.32049780808558
1038.112,0.957,-0.261,-0.496,0.059,0.035,-0.05,-152.24622055727315,-59.64408280206162,-152.35567666014128,-59.308008530831,-152.12870324439106,-59.87312282171641,-152.2421899522662,-59.590565676273705
1038.169,0.95,-0.261,-0.499,-0.155,0.035,0.294,-152.3883591816724,-59.34161501087364,-152.3627182707422,-59.31707333453885,-152.3465519902229,-59.385315738508126,-152.35463513048256,-59.35119453652349
1038.225,0.962,-0.258,-0.499,0.127,-0.148,-0.073,-152.6594959737607,-59.717571022748686,-152.39836122451828,-59.3928583581294,-152.84510878592891,-59.89990166710311,-152.6217350052236,-59.646380012616255
1038.281,0.954,-0.264,-0.495,-0.224,-0.216,0.057,-151.92751306414706,-59.542329706591836,-152.3317012325376,-59.43509123257351,-151.86160583216227,-59.49704995338928,-152.09665353234993,-59.466070592981396
1038.338,0.955,-0.265,-0.498,-0.071,-2.01,0.095,-151.98128385290926,-59.429680357361995,-152.2731100599855,-59.54027628776137,-152.5846687678876,-59.02919480190708,-152.42888941393653,-59.28473554483423
1038.395,0.958,-0.26,-0.506,-0.018,0.135,0.057,-152.8043603594678,-59.29684408627112,-152.34873884941481,-59.503860075582715,-153.01647628482104,-59.56805313235374,-152.68260756711794,-59.53595660396823
1038.451,0.956,-0.278,-0.501,0.02,-1.987,0.042,-150.97453428433033,-59.06438473945429,-152.12556855571097,-59.5346591142531,-151.96556894567362,-59.194540426981305,-152.0455687506923,-59.364599770617204
1038.508,0.962,-0.263,-0.503,-0.079,-0.018,-0.149,-152.3966047261581,-59.45819088162507,-152.1566593477766,-59.525844269880594,-152.77817272775332,-59.679167372827614,-152.46741603776496,-59.6025058213541
1038.564,0.953,-0.259,-0.499,-0.018,-0.171,-0.111,-152.5689687791425,-59.46199506301839,-152.2095086957071,-59.525587852223914,-152.30159832178126,-59.15540280579651,-152.25555350874419,-59.34049532901021
1038.62,0.949,-0.264,-0.506,-0.148,-0.117,-0.042,-152.4471884232822,-58.97726534082293,-152.24406195607088,-59.44572103216607,-152.67732773110004,-58.70756032976815,-152.46069484358546,-59.07664068096711
1038.676,0.965,-0.262,-0.497,0.089,0.135,0.095,-152.2034617060853,-59.791723389349585,-152.22530514760547,-59.490991091378746,-152.45331912778536,-59.189960943651506,-152.3393121376954,-59.34047601751513
1038.733,0.963,-0.262,-0.498,-0.14,-0.01,0.149,-152.25094388478502,-59.70075030147319,-152.22758134306517,-59.52431487885117,-152.25450017501294,-59.67663588788511,-152.24104075903904,-59.60047538336814
1038.789,0.952,-0.263,-0.499,-0.018,0.203,0.141,-152.20834318954937,-59.35300914749648,-152.21725536404907,-59.488978536918694,-152.16164557705181,-59.16626751427477,-152.18945047055044,-59.327623025596736
1038.846,0.959,-0.261,-0.495,-0.018,-0.216,-0.118,-152.19854122006586,-59.73563640592457,-152.2067995606154,-59.5383995549179,-152.21659193048774,-59.68231445810101,-152.21169574555157,-59.61035700650946
1038.902,0.968,-0.259,-0.498,-0.178,0.15,-0.08,-152.5219459561066,-59.8913903356139,-152.25666938392024,-59.588898083551186,-152.948335858187,-60.180465964002195,-152.60250262105362,-59.88468202377669
1038.958,0.955,-0.257,-0.498,0.104,0.119,0.011,-152.70335851907453,-59.59512877422687,-152.31632580178794,-59.588792170806784,-152.71673035064353,-59.66214146150337,-152.51652807621574,-59.625466816155075
1039.014,0.956,-0.27,-0.51,-0.224,0.051,0.134,-152.10272896905238,-58.88394389509378,-152.29071556861442,-59.479798856938636,-152.2982377071597,-59.136177898230315,-152.29447663788704,-59.30798837758448
1039.07,0.957,-0.262,-0.515,0.135,-0.003,-0.065,-153.0358360712702,-58.8774129557429,-152.3976550188119,-59.38426040042449,-153.09546884727504,-58.85693839228831,-152.74656193304347,-59.1205993963564
1039.126,0.954,-0.266,-0.504,0.089,0.211,0.004,-152.17590361574673,-59.147316784405334,-152.36002084038319,-59.331748328844036,-152.24698501376406,-59.13113307425417,-152.30350292707362,-59.231440701549104
1039.182,0.961,-0.262,-0.506,-0.064,-0.003,0.004,-152.62548617392648,-59.33497114721593,-152.40473884054458,-59.32554142981584,-153.0985142997911,-59.582760933368384,-152.75162657016784,-59.45415118159211
1039.239,0.951,-0.263,-0.498,-0.003,0.066,0.027,-152.1609079922253,-59.36602981879853,-152.36827834258222,-59.32186986938097,-151.93059664623587,-59.315156743946034,-152.14943749440903,-59.318513306663505
1039.296,0.941,-0.267,-0.497,0.059,-2.003,0.141,-151.7542701757922,-59.05509344117174,-152.2684347228965,-59.36936902028922,-151.64363620744254,-58.673585219386425,-151.95603546516952,-59.021477119837826
1039.352,0.955,-0.263,-0.502,0.097,-0.194,0.004,-152.34975997087932,-59.31402933836489,-152.27210346309377,-59.36060167373134,-152.21011623612915,-59.177448107946304,-152.24110984961146,-59.26902489083882
1039.408,0.958,-0.254,-0.496,-0.109,0.096,0.095,-152.88316062228444,-59.814089392772466,-152.3697555809422,-59.41803257684185,-152.74593885522177,-59.694561451651715,-152.55784721808197,-59.55629701424678
1039.464,0.958,-0.265,-0.489,0.135,-0.194,-0.057,-151.5457488450852,-59.86171183936488,-152.23409639891614,-59.491084765017774,-151.7238792357598,-59.83040104304675,-151.97898781733795,-59.66074290403226
1039.52,0.968,-0.264,-0.51,0.028,0.096,-0.233,-152.63178957111177,-59.32090786559916,-152.29001412635913,-59.45695181498487,-152.37778710332378,-59.48424530292856,-152.33390061484147,-59.47059855895671
1039.576,0.954,-0.262,-0.507,-0.041,-0.026,-0.004,-152.67164895763867,-59.11158832024547,-152.34967411389036,-59.399763214358664,-152.73246126219763,-59.03695963546731,-152.541067688044,-59.218361424912985
1039.632,0.956,-0.264,-0.505,0.051,-0.262,0.134,-152.4006789730257,-59.20209671470215,-152.35574527895102,-59.374432248743126,-152.044546724181,-59.358921358239286,-152.200146001566,-59.3666768034912
1039.689,0.957,-0.26,-0.506,0.028,-0.01,0.134,-152.8043603594678,-59.270567160645435,-152.42604768742947,-59.350303019953635,-153.08964374421424,-59.23063325193862,-152.75784571582187,-59.29046813594613
1039.745,0.954,-0.261,-0.498,-0.102,0.096,-0.271,-152.34112889497263,-59.48658101068607,-152.42167320900617,-59.35848467365156,-152.29839078813671,-59.520988249291165,-152.36003199857146,-59.43973646147136
1039.802,0.954,-0.261,-0.493,-0.132,0.188,0.202,-152.10272896905238,-59.68417393899514,-152.38118728179182,-59.39312127968728,-151.7752308208488,-59.94196027097294,-152.0782090513203,-59.66754077533011
1039.858,0.958,-0.263,-0.509,0.02,0.005,0.202,-152.6746279197141,-59.11850316895067,-152.42757223908166,-59.344487639922185,-152.21993691730253,-59.51882320801068,-152.3237545781921,-59.43165542396643
1039.914,0.948,-0.262,-0.511,-0.163,0.066,0.072,-152.85487118706664,-58.79458429932142,-152.50588446163633,-59.247553628751604,-152.6077431998124,-59.08216233841,-152.55681383072437,-59.1648579835808
1039.971,0.957,-0.264,-0.508,0.097,0.035,-0.088,-152.53977511271094,-59.110995466177414,-152.5130091825604,-59.213011919658626,-151.84827893609244,-59.403864537252,-152.18064405932643,-59.308438228455316
1040.027,0.957,-0.261,-0.506,0.089,0.158,-0.073,-152.7148512551617,-59.25032267796548,-152.54722984929433,-59.19944825752346,-152.81928174551075,-59.24003326124202,-152.68325579740252,-59.21974075938274
1040.083,0.96,-0.262,-0.499,-0.056,-0.117,-0.004,-152.29827694532324,-59.58351346137865,-152.51863773429008,-59.254014352991206,-152.24966176619864,-59.615049984759025,-152.38414975024438,-59.434532168875116
1040.139,0.955,-0.263,-0.503,0.081,-0.094,0.057,-152.3966047261581,-59.27473377318297,-152.5016578816866,-59.25309648385243,-152.4500199054022,-59.1310115699726,-152.4758388935444,-59.192054026912515
1040.196,0.955,-0.257,-0.508,-0.064,-0.14,-0.027,-153.16490001580135,-59.19933717421125,-152.614711008079,-59.242751433295865,-153.65939462852273,-59.23663602389332,-153.13705281830087,-59.23969372859459
1040.252,0.954,-0.262,-0.497,0.081,-0.102,-0.042,-152.2034617060853,-59.50530177446352,-152.5560408832565,-59.28018606799752,-152.69007543736015,-59.41436779087798,-152.62305816030832,-59.347276929437754
1040.309,0.959,-0.262,-0.498,-0.125,1.883,-0.134,-152.25094388478502,-59.59676042770732,-152.52086901590576,-59.2329089099534,-151.85485796323493,-59.82943423997335,-152.18786348957036,-59.53117157496338
1040.366,0.954,-0.264,-0.492,-0.018,0.028,-0.088,-151.78264414527072,-59.660522029854604,-152.40955601915823,-59.29557506492572,-151.63563100482335,-59.297740630228255,-152.0225935119908,-59.29665784757699
1040.422,0.963,-0.266,-0.501,-0.048,-0.094,0.103,-152.03446347723525,-59.500621422447416,-152.35145370191486,-59.33210683523681,-152.51454538755956,-59.733630331820365,-152.4329995447372,-59.53286858352858
1040.479,0.949,-0.264,-0.501,-0.163,-0.285,-0.164,-152.2131861322918,-59.17400957907152,-152.33341885068498,-59.32199617912632,-152.26111945654853,-59.187025280203635,-152.29726915361675,-59.25451072966498
1040.535,0.952,-0.257,-0.508,0.135,0.005,-0.019,-153.16490001580135,-59.119989790552076,-152.45345575372681,-59.28971706633936,-153.33284396883394,-59.107082820591785,-152.8931498612804,-59.198399943465574
1040.591,0.959,-0.265,-0.495,-0.048,0.051,-0.149,-151.8374726256764,-59.65206001388266,-152.35980780101283,-59.34288976323332,-152.55948733330044,-59.404388640212204,-152.45964756715665,-59.37363920172277
1040.648,0.957,-0.256,-0.505,0.043,-0.003,0.248,-153.118150742791,-59.390559910391275,-152.4742480366534,-59.35170498649924,-153.68289434380034,-59.36697565939393,-153.07857119022685,-59.359340322946586
1040.705,0.956,-0.266,-0.487,-0.132,0.188,0.034,-151.35657857756007,-59.86699099741885,-152.3062602420552,-59.42568673367326,-152.72663988974222,-59.58720798635126,-152.5164500658987,-59.50644736001226
1040.761,0.959,-0.259,-0.507,-0.079,-0.056,-0.126,-152.93986799890754,-59.303903691982015,-152.40408051726334,-59.41448308582876,-153.08031520914997,-59.1382959769437,-152.74219786320666,-59.27638953138623
1040.817,0.954,-0.264,-0.509,-0.018,-0.079,-0.126,-152.5858535685166,-58.99250952053381,-152.43236837536145,-59.355997236048715,-152.01776201748908,-58.81600987526699,-152.22506519642525,-59.086003555657854
1040.873,0.948,-0.268,-0.502,0.036,-0.033,-0.157,-151.90382243927712,-59.02474053905599,-152.347376404021,-59.30646985722551,-151.7713346073833,-59.28911034740721,-152.05935550570214,-59.297790102316355
1040.93,0.956,-0.26,-0.489,-0.01,-0.003,0.004,-152.00054004044523,-59.915695826101285,-152.2891624303268,-59.40150504541618,-151.96716278741653,-59.82466790468484,-152.12816260887166,-59.61308647505051
1040.986,0.938,-0.265,-0.501,-0.247,0.234,0.08,-152.12375108497315,-58.858356275978146,-152.26829306186565,-59.307996279434455,-152.0460828480034,-59.33341002067888,-152.15718795493453,-59.32070315005667
1041.042,0.956,-0.264,-0.507,0.104,0.104,0.118,-152.49355359990085,-59.12374920071715,-152.29122561408008,-59.27328701275582,-152.72450596347073,-59.00651237827626,-152.5078657887754,-59.13989969551604
1041.098,0.958,-0.262,-0.499,0.028,0.058,0.072,-152.29827694532324,-59.53131715978676,-152.2851184066382,-59.309163740479846,-152.35354910142684,-59.45284935008071,-152.31933375403253,-59.38100654528028
1041.155,0.953,-0.261,-0.504,0.036,0.119,-0.027,-152.6222972286683,-59.2235545767187,-152.33073652456534,-59.28983881945314,-152.83508918384155,-59.041831017189196,-152.58291285420344,-59.16583491832117
1041.211,0.956,-0.263,-0.497,0.059,0.074,0.08,-152.11332360271734,-59.5369426593461,-152.29046714966395,-59.32464809480933,-152.26177858455418,-59.429145661507775,-152.27612286710905,-59.376896878158554
1041.267,0.954,-0.26,-0.499,-0.033,-0.018,-0.141,-152.4785898201591,-59.46772303585477,-152.3169280210268,-59.34926044331094,-153.45278770437912,-59.635766603830504,-152.88485786270297,-59.49251352357072
1041.324,0.956,-0.264,-0.5,0.066,-2.003,-0.027,-152.16594605944917,-59.39823117462653,-152.28653792984082,-59.45543078783027,-152.34716058684432,-59.315278704134634,-152.3168492583426,-59.385354745982454
1041.38,0.954,-0.265,-0.504,0.059,-0.026,0.103,-152.26489133756212,-59.16795108252164,-152.27594162466102,-59.41303837202823,-152.04558036183846,-58.78410673745653,-152.16076099324974,-59.09857255474238
1041.436,0.956,-0.259,-0.489,-0.148,0.242,-0.027,-152.09196313311872,-59.93673499957882,-152.2494095835941,-59.483783124261684,-152.0657413223657,-59.30924292066957,-152.1575754529799,-59.396513022465626
1041.492,0.958,-0.266,-0.504,0.112,-0.003,-0.011,-152.17590361574673,-59.252756416855235,-152.22664143810695,-59.45109477500001,-152.7222144809094,-58.96586461133609,-152.47442795950818,-59.208479693168044
1041.548,0.954,-0.264,-0.501,-0.079,0.074,0.134,-152.2131861322918,-59.30633205276203,-152.22189973026155,-59.42661890874953,-152.14042678207448,-59.347871151767684,-152.18116325616802,-59.38724503025861
1041.604,0.953,-0.26,-0.507,0.036,0.051,-0.042,-152.85031830221683,-59.12563472762416,-152.31278580441167,-59.37755212824407,-152.97633204103332,-59.088868041207526,-152.6445589227225,-59.2332100847258
1041.66,0.955,-0.26,-0.501,0.051,-0.003,-0.034,-152.57239924249382,-59.415022119115605,-152.349622841451,-59.38211937871257,-152.4727570856449,-59.49515408117641,-152.41118996354794,-59.43863672994449
1041.716,0.966,-0.264,-0.503,-0.132,-0.056,0.164,-152.30722479706333,-59.541682090088074,-152.34949926372175,-59.40870811291137,-151.58663094415607,-59.73216577243218,-151.9680651039389,-59.570436942671776
1041.772,0.938,-0.261,-0.5,-0.125,-0.125,-0.21,-152.43544106570084,-58.98138291259756,-152.36888233379875,-59.3473049327554,-152.09018951122903,-59.31734642255661,-152.2295359225139,-59.332325677656
1041.828,0.96,-0.261,-0.504,-0.048,-0.003,-0.164,-152.6222972286683,-59.40757406385786,-152.41159554970096,-59.35368386037423,-153.28161628143184,-59.5170167842251,-152.84660591556639,-59.43535032229967
1041.885,0.954,-0.263,-0.504,-0.003,-2.01,0.164,-152.44330343688233,-59.20906322474628,-152.41919697612954,-59.424546397896925,-152.32271964944,-59.02962873233532,-152.37095831278475,-59.22708756511612
1041.941,0.966,-0.259,-0.487,0.02,0.127,0.156,-151.99472574256677,-60.273516106584765,-152.35394680612993,-59.54773578039003,-152.1761092669731,-59.52339162640668,-152.2650280365515,-59.53556370339835
1041.997,0.954,-0.262,-0.503,-0.277,0.081,-0.088,-152.4861306992901,-59.268889321904844,-152.38728213879077,-59.5017221865207,-152.6875331343912,-59.123411085513986,-152.53740763659098,-59.312566636017344
1042.054,0.952,-0.263,-0.501,-0.033,0.02,0.141,-152.30276854779072,-59.274223835031954,-152.37583816239905,-59.46453427941644,-151.89142564727595,-59.42575719049985,-152.1336319048375,-59.445145734958146
1042.11,0.955,-0.266,-0.507,-0.132,0.096,-0.027,-152.31603289235483,-59.056426767632004,-152.37228398390747,-59.39360250128391,-152.3699928591414,-59.01901739984604,-152.37113842152445,-59.20630995056497
1042.166,0.966,-0.262,-0.505,0.013,-0.133,0.08,-152.5791792802091,-59.504330266084565,-152.40346401302037,-59.412336211386354,-152.5958529018092,-59.53751791802266,-152.4996584574148,-59.4749270647045
1042.223,0.956,-0.26,-0.495,-0.003,0.081,-0.065,-152.2891859847469,-59.67822515204869,-152.38629088990402,-59.44618681890257,-151.86527794654043,-59.87639193277465,-152.12578441822222,-59.66128937583861
1042.279,0.941,-0.257,-0.503,-0.094,-0.117,-0.034,-152.93594831650006,-59.02495393766231,-152.47735034510043,-59.38309025060355,-152.3928188405777,-59.46890833410722,-152.43508459283908,-59.425999292355385
1042.335,0.959,-0.26,-0.501,0.005,-0.01,0.027,-152.57239924249382,-59.5198154416166,-152.49605345707838,-59.399827189938954,-153.50222555598233,-59.77648958781001,-152.99913950653035,-59.58815838887448
1042.392,0.967,-0.261,-0.504,0.013,0.028,0.118,-152.6222972286683,-59.589615709957805,-152.52007710535497,-59.42415309389251,-152.30781848786816,-59.521856082927386,-152.41394779661158,-59.47300458840995
1042.448,0.958,-0.266,-0.509,0.135,-0.102,-0.05,-152.4087323048116,-59.05760426253386,-152.50166360409662,-59.36832735677606,-152.4164366946251,-59.02280733472371,-152.45905014936085,-59.19556734574988
1042.504,0.952,-0.257,-0.498,-0.132,0.18,0.095,-152.70335851907453,-59.51638014571456,-152.5444214072045,-59.37766832899334,-152.71521688253927,-59.55725375071935,-152.62981914487187,-59.467461039856346
1042.561,0.952,-0.265,-0.504,0.15,0.135,-0.011,-152.26489133756212,-59.11500698951137,-152.4992861310047,-59.32531726475409,-152.16798687889275,-59.03874745327058,-152.33363650494874,-59.18203235901234
1042.617,0.955,-0.279,-0.5,-0.293,0.043,-0.088,-150.8384827807957,-59.05503933995614,-152.25491401056564,-59.27444359367074,-151.0717496207745,-59.05792386448299,-151.66333181567006,-59.16618372907686
1042.674,0.954,-0.26,-0.493,-0.071,0.135,0.103,-152.19358126224998,-59.705087937004016,-152.2398875480385,-59.32776377723357,-151.87919025478743,-59.53736174463219,-152.05953890141296,-59.43256276093288
1042.73,0.949,-0.261,-0.494,0.188,0.081,-0.24,-152.15071090773958,-59.513161653979324,-152.2079372865152,-59.34846648166501,-152.95215204591324,-59.449029649576914,-152.58004466621423,-59.398748065620964
1042.786,0.962,-0.26,-0.496,-0.338,0.135,0.156,-152.336761672182,-59.79479884074525,-152.2346995620042,-59.40925469423238,-152.31228761473477,-59.810902435924405,-152.2734935883695,-59.610078565078396
1042.842,0.953,-0.262,-0.507,0.104,0.226,0.118,-152.67164895763867,-59.085108755071424,-152.2901190464893,-59.34759980738965,-152.5228318283929,-59.34600016861208,-152.4064754374411,-59.34679998800087
1042.898,0.952,-0.265,-0.5,-0.041,0.188,-0.195,-152.07641028486162,-59.27206253418738,-152.25314433855402,-59.32462529049947,-151.36506142839437,-59.16316293295322,-151.8091028834742,-59.24389411172635
1042.954,0.958,-0.261,-0.502,-0.178,0.043,-0.195,-152.52916216281136,-59.43385240843919,-152.2982647058615,-59.337150025152674,-152.52590208215722,-59.434719793133546,-152.41208339400936,-59.38593490914311
1043.011,0.955,-0.26,-0.497,0.036,-0.026,0.034,-152.38418711046916,-59.5730049246486,-152.30528450762463,-59.37379045533363,-152.07339180037627,-59.865946795199235,-152.18933815400044,-59.619868625266434
1043.067,0.956,-0.261,-0.507,-0.056,1.867,0.004,-152.76091192493752,-59.18468418466963,-152.37577903433473,-59.25586935670238,-152.42778778749053,-59.53223597222545,-152.40178341091263,-59.39405266446391
1043.124,0.961,-0.267,-0.503,-0.003,0.051,0.286,-152.03996202737676,-59.349764321070744,-152.32226512337803,-59.26757876920876,-151.4804480170007,-59.08845934616297,-151.90135657018936,-59.178019057685866
1043.18,0.954,-0.269,-0.503,0.043,0.089,0.011,-151.86251839524866,-59.12410970756973,-152.2445436922183,-59.24080327633449,-152.64136717338198,-59.19784136384713,-152.44295543280015,-59.21932232009081
1043.236,0.967,-0.265,-0.506,-0.003,0.081,0.08,-152.3582559175115,-59.43028106932857,-152.2561057308655,-59.265908177674106,-152.1318332993246,-59.607191094381925,-152.19396951509503,-59.43654963602802
1043.293,0.952,-0.267,-0.49,-0.094,0.028,-0.042,-151.41412376195117,-59.6229597650713,-152.12189945356977,-59.32146937736316,-150.98628201871944,-59.633193191472124,-151.5540907361446,-59.477331284417644
1043.354,0.954,-0.262,-0.506,-0.025,0.219,-0.05,-152.62548617392648,-59.150889997497316,-152.19039350991812,-59.28653860385746,-151.9211539426432,-59.3741464490454,-152.05577372628068,-59.33034252645143
1043.41,0.951,-0.258,-0.503,0.036,0.043,0.095,-152.84569338560962,-59.2712597353111,-152.2848311056148,-59.284039404575296,-152.9544711941687,-59.25703362479549,-152.61965114989175,-59.27053651468539
1043.466,0.957,-0.259,-0.508,-0.025,0.02,-0.065,-152.98557937421407,-59.211999936391884,-152.3941945022084,-59.27351161388587,-153.27042362783723,-58.805128483081376,-152.8323090650228,-59.039320048483624
1043.522,0.954,-0.259,-0.494,-0.125,-0.071,-0.202,-152.3323594404728,-59.68630025868225,-152.3926350552474,-59.343511545657215,-152.85555585406917,-59.228396931802386,-152.6240954546583,-59.2859542387298
1043.578,0.953,-0.268,-0.497,0.226,0.104,0.126,-151.66488188983885,-59.353236723273945,-152.26870003270457,-59.34449502906531,-151.7762588485232,-59.34101518191495,-152.0224794406139,-59.34275510549013
1043.634,0.943,-0.268,-0.507,0.013,-0.155,-0.172,-152.1390874499477,-58.694610052688965,-152.24404122996057,-59.25357593336405,-152.06019864153382,-58.870317723960255,-152.15211993574718,-59.06194682866215
1043.69,0.948,-0.259,-0.507,-0.025,-0.01,-0.202,-152.93986799890754,-59.01295537504032,-152.35052628695763,-59.21553362207321,-153.24065197501102,-59.06180992876846,-152.79558913098433,-59.13867177542083
1043.746,0.955,-0.264,-0.502,0.181,-2.003,-0.042,-152.26027883643468,-59.29341195788524,-152.32848288832201,-59.319955075321985,-152.404746559671,-59.179950692958265,-152.36661472399652,-59.24995288414013
1043.802,0.957,-0.266,-0.503,-0.033,0.104,-0.027,-152.1289033754148,-59.26555230162482,-152.298705534849,-59.303899865717334,-151.5569730175783,-59.44552796410497,-151.92783927621366,-59.374713914911155
1043.859,0.959,-0.251,-0.503,0.165,-0.102,-0.195,-153.48053018125594,-59.62197435624847,-152.47587239000234,-59.35602358816402,-152.7755606402486,-59.55972227066607,-152.62571651512548,-59.457872929415046
1043.915,0.952,-0.252,-0.501,0.013,-0.056,0.065,-153.29787784156736,-59.4983647807626,-152.6124382365407,-59.38056208067464,-153.81781751525412,-59.43009493647441,-153.2151278758974,-59.40532850857453
1043.971,0.958,-0.25,-0.492,0.081,0.119,0.103,-153.06350650955122,-60.05513071421543,-152.69334954294803,-59.48177308026608,-153.3084221039943,-59.84327358062755,-153.00088582347115,-59.66252333044682
1044.028,0.954,-0.259,-0.504,-0.186,-0.026,0.004,-152.80187205149088,-59.29065531956098,-152.7366218966779,-59.45853915723562,-152.83508790706517,-59.31359302805867,-152.78585490187152,-59.38606609264714
1044.084,0.956,-0.26,-0.501,-0.018,-0.094,0.248,-152.57239924249382,-59.44128142178788,-152.7290627772685,-59.464340375047975,-152.12191804956572,-59.63817336572971,-152.4254904134171,-59.55125687038884
1044.14,0.957,-0.259,-0.501,-0.117,0.196,-0.126,-152.66257035409149,-59.48793353938701,-152.74020358646874,-59.462699677883634,-153.00473019366223,-59.40639951651654,-152.87246689006548,-59.43454959720009
1044.196,0.954,-0.253,-0.5,-0.033,0.005,0.134,-153.16058964530626,-59.5706731079248,-152.82342883089797,-59.48358976132842,-153.49241403790296,-59.92160623486395,-153.15792143440046,-59.70259799809618
1044.252,0.956,-0.262,-0.502,0.02,-0.11,-0.088,-152.43938777261386,-59.36089388244108,-152.78039091367032,-59.474331607186535,-152.65151320646066,-59.46681449389311,-152.7159520600655,-59.47057305053983
1044.308,0.955,-0.26,-0.494,-0.155,-0.285,0.057,-152.24145939893998,-59.69164932755264,-152.7181996835171,-59.52588434134942,-152.0173300359722,-59.806137759956364,-152.36776485974465,-59.66601105065289
1044.364,0.956,-0.257,-0.494,-0.14,-0.102,0.019,-152.51461385607297,-59.779971409780266,-152.70389648999142,-59.576059845096,-153.13993066455097,-59.73937949897019,-152.9219135772712,-59.657719672033096
1044.42,0.955,-0.278,-0.497,-0.018,-0.018,0.126,-150.77926499147762,-59.19234098688703,-152.41115094111322,-59.52364344790063,-151.98026655362463,-59.47602326595558,-152.19570874736894,-59.49983335692811
1044.476,0.956,-0.254,-0.511,-0.148,-0.094,-0.103,-153.56965652028003,-59.16659303982083,-152.59553579617878,-59.47607554630112,-152.96761775479646,-59.288774965536376,-152.78157677548762,-59.38242525591875
1044.532,0.958,-0.259,-0.501,0.234,-0.049,0.233,-152.66257035409149,-59.514101180722065,-152.59868546563067,-59.48584397884067,-152.39823612514436,-59.675552924386054,-152.49846079538753,-59.58069845161336
1044.589,0.953,-0.26,-0.508,-0.155,-0.216,0.149,-152.89613292503924,-59.086233135885244,-152.65731621701752,-59.434939315020934,-152.78478420972448,-59.21179153259948,-152.721050213371,-59.3233654238102
1044.645,0.957,-0.262,-0.502,0.097,-0.056,0.065,-152.43938777261386,-59.387152995900145,-152.6247080100845,-59.4286611480451,-152.09700307629583,-59.54962041512992,-152.36085554319016,-59.48914078158751
1044.702,0.955,-0.26,-0.51,-0.132,-0.033,0.057,-152.98733465206146,-59.06047409704072,-152.6930646827744,-59.37032249701622,-152.7591634063728,-59.18684246420011,-152.7261140445736,-59.278582480608165
1044.758,0.952,-0.263,-0.504,-0.201,0.02,0.118,-152.44330343688233,-59.156160088132374,-152.6704291422528,-59.33106172113985,-151.58620838814306,-59.0665833540586,-152.12831876519795,-59.19882253759923
1044.814,0.959,-0.259,-0.503,0.005,0.005,-0.027,-152.75558406745677,-59.46139088907235,-152.6889067413596,-59.34530940373921,-152.63390271043423,-59.42158071238965,-152.66140472589692,-59.383445058064424
1044.871,0.956,-0.263,-0.503,-0.071,-0.171,0.042,-152.3966047261581,-59.3010636014711,-152.6521176332528,-59.3413955175389,-151.7632985308961,-58.959047279575486,-152.20770808207445,-59.15022139855719
1044.927,0.948,-0.261,-0.503,0.242,0.043,-0.095,-152.57580263647642,-59.13040109986909,-152.63225034648983,-59.300655586897534,-152.90033067853102,-59.20311349215715,-152.7662905125104,-59.25188453952734
1044.984,0.958,-0.264,-0.511,-0.064,-0.102,0.126,-152.67758372129532,-59.02010988764665,-152.64563171379856,-59.254167053099245,-152.27985669369463,-58.68103854126192,-152.46274420374658,-58.96760279718058
1045.04,0.958,-0.267,-0.504,-0.178,-0.194,0.195,-152.08706154272343,-59.23211136918756,-152.56917876231728,-59.25082382047775,-152.11226130238538,-59.15315178614128,-152.34072003235133,-59.201987803309514
1045.096,0.957,-0.26,-0.501,0.074,-0.201,0.149,-152.57239924249382,-59.46750002071908,-152.5652752328054,-59.28532827272155,-152.82250907969097,-59.62681746847302,-152.69389215624818,-59.45607287059728
1045.152,0.952,-0.267,-0.506,0.097,0.066,0.011,-152.1808240313397,-58.99540449384723,-152.49919070677754,-59.22892262737167,-152.28653936953654,-59.113381824848396,-152.39286503815703,-59.17115222611003
1045.209,0.958,-0.261,-0.5,-0.102,-0.026,-0.05,-152.43544106570084,-59.512565614020865,-152.49026054616075,-59.26517265548038,-152.49863155522365,-59.649276697465254,-152.4944460506922,-59.45722467647282
1045.265,0.955,-0.261,-0.506,-0.094,-0.033,-0.149,-152.7148512551617,-59.19762672164701,-152.525967250262,-59.24864099103972,-152.74440903314684,-59.17751318243038,-152.63518814170442,-59.213077086735055
1045.321,0.95,-0.25,-0.497,-0.018,-0.171,0.011,-153.29677598905906,-59.64607178493674,-152.64592821783435,-59.311527968210704,-153.3499461728478,-59.675349192038134,-152.99793719534108,-59.49343858012442
1045.378,0.951,-0.265,-0.51,0.036,-0.125,-0.042,-152.54325771540013,-58.85323485874672,-152.63133265822574,-59.24014263254022,-152.8356905467318,-59.14402406073756,-152.73351160247876,-59.19208334663889
1045.434,0.948,-0.262,-0.489,-0.132,0.142,0.256,-151.81815851224877,-59.66400403901445,-152.51169733579368,-59.292003885896904,-152.14647615920916,-59.48886084475078,-152.32908674750144,-59.390432365323846
1045.491,0.957,-0.264,-0.513,-0.094,-0.209,0.149,-152.76874885273887,-58.915575703442485,-152.5531002504534,-59.23741424195659,-152.61274530455407,-59.048693755881466,-152.58292277750374,-59.14305399891903
1045.547,0.946,-0.261,-0.504,0.02,-0.041,-0.095,-152.6222972286683,-59.037528698310375,-152.56134054784997,-59.19987106762671,-152.99192840701764,-58.609705130077444,-152.7766344774338,-58.90478809885208
1045.603,0.957,-0.26,-0.509,-0.079,0.013,-0.164,-152.94180483899322,-59.15259711878781,-152.62390875976274,-59.182439393584275,-152.9629438879371,-59.11972502585472,-152.79342632384993,-59.1510822097195
1045.66,0.952,-0.259,-0.507,-0.01,-0.041,0.118,-152.93986799890754,-59.119327925784354,-152.67596614452862,-59.16464236075641,-151.78471640646646,-59.08916205370421,-152.23034127549755,-59.12690220723031
1045.716,0.952,-0.26,-0.499,0.051,-0.148,0.072,-152.4785898201591,-59.41508007860248,-152.64637815078711,-59.20113525796583,-152.69644957293818,-59.50731693581099,-152.67141386186265,-59.35422609688841
1045.772,0.955,-0.264,-0.5,0.295,0.005,0.156,-152.16594605944917,-59.371950151841546,-152.55914535112075,-59.21972874475274,-151.54649434798293,-59.21364352981164,-152.05281984955184,-59.216686137282196
1045.828,0.962,-0.261,-0.504,0.181,-0.033,0.034,-152.6222972286683,-59.45978654601975,-152.55955609270967,-59.2523741236004,-152.67575358452945,-59.47180226112189,-152.61765483861956,-59.36208819236114
1045.885,0.956,-0.261,-0.497,-0.163,-0.056,0.103,-152.29374956733488,-59.57849027139372,-152.52494548138534,-59.30154562033828,-151.7803345457673,-59.71434564138513,-152.15264001357633,-59.507945630861705
1045.941,0.953,-0.264,-0.5,-0.071,0.234,0.065,-152.16594605944917,-59.319265667503565,-152.46912756230702,-59.29084743933197,-152.18665473189577,-59.29537126583663,-152.3278911471014,-59.293109352584295
1045.997,0.968,-0.257,-0.496,0.204,-0.194,0.034,-152.60928618015072,-60.010978454689074,-152.4764012264515,-59.411376519921355,-152.4904434504347,-59.812191572786915,-152.4834223384431,-59.61178404635413
1046.053,0.964,-0.26,-0.501,0.028,-0.178,0.118,-152.57239924249382,-59.64989750790081,-152.48618565351072,-59.46050402245914,-152.72235517287768,-59.32924350323401,-152.6042704131942,-59.39487376284657
1046.11,0.967,-0.261,-0.5,-0.079,0.104,0.004,-152.43544106570084,-59.74626714589061,-152.47864538404528,-59.505519996877155,-152.40130988759813,-59.799582675983636,-152.43997763582172,-59.65255133643039
1046.166,0.958,-0.26,-0.5,-0.254,-0.117,0.042,-152.52556837372288,-59.53309099053552,-152.49438077575806,-59.52234104430962,-152.6368518965887,-59.31806431134405,-152.56561633617338,-59.420202677826836
1046.222,0.956,-0.262,-0.508,0.059,0.188,-0.073,-152.71766824336646,-59.125178115790625,-152.52344187565052,-59.457885412236244,-152.83048307447586,-58.850651048301195,-152.6769624750632,-59.15426823026872
1046.279,0.957,-0.262,-0.489,-0.086,-0.026,-0.157,-151.81815851224877,-59.899452402592914,-152.41452057376046,-59.53302684400947,-152.43521404353564,-59.29200340145354,-152.42486730864806,-59.412515122731506
1046.335,0.958,-0.259,-0.498,-0.071,-0.262,0.065,-152.5219459561066,-59.63253211476451,-152.42786530716162,-59.5684424865955,-152.57916743693534,-59.799977179377855,-152.50351637204847,-59.68420983298668
1046.391,0.957,-0.261,-0.501,-0.155,-0.155,0.187,-152.48237518212156,-59.4470131244178,-152.43765359142432,-59.56452520708306,-152.43670834995214,-59.26637188832464,-152.43718097068825,-59.415448547703846
1046.447,0.958,-0.263,-0.499,-0.102,0.005,0.027,-152.20834318954937,-59.51063651436548,-152.4005848408048,-59.56267412477627,-152.03155030219673,-59.70002963865476,-152.2160675715008,-59.63135188171552
1046.503,0.955,-0.26,-0.511,0.043,-0.186,-0.08,-153.03272296916714,-59.021160610700186,-152.49076144922967,-59.49251395978762,-152.61468577591396,-59.31013680366302,-152.5527236125718,-59.40132538172532
1046.559,0.961,-0.259,-0.501,0.043,-0.071,-0.111,-152.66257035409149,-59.592361211456776,-152.51318917055946,-59.51382804517812,-152.71363484318027,-59.82875739692203,-152.61341200686985,-59.67129272105008
1046.615,0.948,-0.259,-0.504,-0.155,0.035,0.027,-152.80187205149088,-59.131697654355975,-152.56469239459278,-59.454902651989535,-152.78227456648065,-59.328460860172726,-152.67348348053673,-59.39168175608113
1046.672,0.951,-0.262,-0.498,0.013,-0.148,-0.004,-152.25094388478502,-59.3868333832694,-152.5153938116445,-59.4513255258601,-151.71622071446043,-59.43650660466854,-152.11580726305246,-59.44391606526432
1046.728,0.951,-0.261,-0.498,0.074,-0.155,-0.118,-152.34112889497263,-59.40758375366208,-152.48287926131906,-59.45122046526536,-152.83352983147407,-59.378656906087194,-152.65820454639658,-59.414938685676276
1046.784,0.954,-0.257,-0.511,-0.17,0.142,-0.347,-153.3005570924194,-59.05445162729709,-152.6170218810697,-59.38105825690626,-153.4209368010798,-59.00823374039727,-153.01897934107473,-59.194645998651765
1046.84,0.954,-0.266,-0.499,-0.117,-0.041,-0.149,-151.9394335423924,-59.34323099083526,-152.51901572701067,-59.373219131560425,-152.51894361377788,-59.221475359497816,-152.5189796703943,-59.297347245529124
1046.896,0.959,-0.26,-0.504,0.02,-0.117,0.057,-152.7120120544845,-59.40172796678433,-152.54661313985514,-59.379153841422855,-153.0745115964122,-59.72783970752913,-152.81056236813367,-59.55349677447599
1046.952,0.958,-0.26,-0.504,-0.14,0.135,0.111,-152.7120120544845,-59.37553097789164,-152.57887539174212,-59.36833726135135,-152.54032787165914,-59.21689266242016,-152.55960163170062,-59.292614961885754
1047.008,0.96,-0.26,-0.504,-0.033,-1.98,0.088,-152.7120120544845,-59.427884508444144,-152.60218705290896,-59.46731717782953,-153.05178552303025,-59.64001258680606,-152.8269862879696,-59.55366488231779
1047.064,0.958,-0.262,-0.501,-0.064,0.066,0.225,-152.39249825695174,-59.45267177479015,-152.5739317512974,-59.457732733614584,-151.93367627952233,-59.32179677376977,-152.25380401540986,-59.38976475369218
1047.12,0.958,-0.26,-0.489,-0.086,-0.003,0.065,-152.00054004044523,-59.967605808969104,-152.4878158443958,-59.533977751404535,-151.98640857494092,-59.836358755778065,-152.23711220966837,-59.6851682535913
1047.176,0.955,-0.261,-0.504,0.059,0.02,0.072,-152.6222972286683,-59.276335049786304,-152.5020267537116,-59.492099249026055,-152.44879895508438,-59.421375515491285,-152.47541285439797,-59.456737382258666
1047.232,0.954,-0.26,-0.499,-0.125,0.066,0.004,-152.4785898201591,-59.46772303585477,-152.5011146839988,-59.48287369698049,-152.79725166570313,-59.95267420950074,-152.64918317485098,-59.717773953240616
1047.288,0.956,-0.26,-0.507,-0.041,-0.239,0.004,-152.85031830221683,-59.204890631539456,-152.55473073876774,-59.447959900907215,-152.84560420144348,-59.43592625099149,-152.7001674701056,-59.441943075949354
1047.345,0.957,-0.266,-0.503,-0.209,0.089,-0.004,-152.1289033754148,-59.26555230162482,-152.49687902170749,-59.41026063178787,-151.70119258762236,-59.163790081859155,-152.09903580466494,-59.28702535682351
1047.402,0.957,-0.261,-0.509,0.013,0.089,0.057,-152.85260364302823,-59.1324965012339,-152.54841708647382,-59.35614463715446,-152.82669117160754,-59.13602846473558,-152.68755412904068,-59.24608655094502
1047.458,0.958,-0.262,-0.508,-0.178,-0.064,0.088,-152.71766824336646,-59.17789095627771,-152.58228432599503,-59.3231619170449,-152.05062691720192,-59.426433837432974,-152.3164556215985,-59.37479787723893
1047.515,0.955,-0.261,-0.499,-0.048,-0.079,0.027,-152.3883591816724,-59.473377462780576,-152.5538824936901,-59.34139160289818,-153.26037083114727,-59.584762182037146,-152.9071266624187,-59.46307689246766
1047.571,0.955,-0.263,-0.5,-0.025,0.013,-0.034,-152.25562983051745,-59.39266576066574,-152.50641733899437,-59.340910343772485,-152.0966644685225,-59.3621754292929,-152.30154090375845,-59.35154288653269
1047.627,0.959,-0.259,-0.494,0.104,0.051,0.019,-152.3323594404728,-59.81663560970914,-152.4702692607067,-59.40610859543621,-152.36141234704456,-59.89238539756028,-152.41584080387562,-59.64924699649825
1047.683,0.957,-0.262,-0.502,-0.018,-0.117,0.004,-152.43938777261386,-59.387152995900145,-152.46125353283767,-59.40478543029588,-152.44426685145436,-59.387191264112566,-152.452760192146,-59.395988347204224
1047.74,0.958,-0.258,-0.5,0.066,0.196,-0.073,-152.70626595652075,-59.573981218096854,-152.49152062244204,-59.41803415073433,-153.14880272432504,-59.89976628762945,-152.82016167338355,-59.65890021918189
1047.796,0.958,-0.264,-0.498,-0.064,0.043,0.332,-152.07102129131908,-59.52914940278603,-152.42487394335038,-59.430935687583435,-152.072231910617,-59.53231432985585,-152.24855292698368,-59.48162500871965
1047.852,0.954,-0.257,-0.499,-0.071,-0.163,-0.111,-152.75017131591287,-59.529249217584514,-152.47313320349699,-59.45239726556398,-153.23639213329093,-59.51978065662732,-152.85476266839396,-59.486088961095646
1047.909,0.953,-0.261,-0.503,-0.071,-0.11,0.019,-152.57580263647642,-59.262971713668925,-152.48873560868492,-59.42667267384912,-152.23375460371838,-59.11816906329665,-152.36124510620164,-59.27242086857288
1047.965,0.956,-0.26,-0.504,-0.14,-0.071,-0.004,-152.7120120544845,-59.32301532656886,-152.52741079103103,-59.411138168705186,-153.20413308247336,-59.521291061130114,-152.8657719367522,-59.46621461491765
1048.021,0.96,-0.262,-0.504,0.104,0.096,0.034,-152.53272766139187,-59.38721071271907,-152.5218087750476,-59.399533246334606,-152.03106014563545,-59.29059241758863,-152.27643446034153,-59.34506283196161
1048.077,0.958,-0.257,-0.501,-0.201,0.142,0.141,-152.84335337909627,-59.55478653227989,-152.58056505797117,-59.413910770424565,-153.0894181448959,-59.63862542175689,-152.83499160143353,-59.52626809609073
1048.133,0.95,-0.263,-0.498,0.104,-0.133,0.103,-152.1609079922253,-59.33959421967076,-152.5103945896898,-59.40630902029226,-152.0152513193712,-59.28510282102801,-152.26282295453052,-59.34570592066014
1048.19,0.95,-0.261,-0.498,0.051,-0.049,0.172,-152.34112889497263,-59.381169185829506,-152.4789760536662,-59.40189180577794,-153.11546493078396,-59.601552920619035,-152.79722049222508,-59.50172236319849
1048.246,0.955,-0.259,-0.487,0.066,-0.003,-0.08,-151.99472574256677,-59.99014185719668,-152.39601665580682,-59.49191775312114,-152.30655465958102,-59.8869240852886,-152.35128565769392,-59.68942091920487
1048.302,0.938,-0.259,-0.496,-0.163,-0.071,0.011,-152.42745303569362,-59.18240473180048,-152.40165444178962,-59.44794924448282,-152.4038776638402,-59.384401598075556,-152.4027660528149,-59.41617542127919
1048.358,0.95,-0.26,-0.496,-0.064,0.081,0.111,-152.336761672182,-59.48112992424455,-152.3876627573685,-59.448496217159644,-152.07372088337166,-59.84239942216057,-152.23069182037008,-59.645447819660106
1048.414,0.967,-0.269,-0.51,-0.079,0.005,0.065,-152.19055039984585,-59.19359080042141,-152.35308964368647,-59.40751095237837,-152.16258854117638,-59.342596010604666,-152.25783909243142,-59.37505348149152
1048.47,0.95,-0.263,-0.497,-0.048,-0.01,-0.004,-152.11332360271734,-59.379064123490544,-152.30889554968084,-59.40102550611314,-151.62550982935065,-59.737135645461876,-151.96720268951574,-59.56908057578751
1048.526,0.953,-0.258,-0.503,0.181,0.066,-0.004,-152.84569338560962,-59.324103165652694,-152.37451039090894,-59.383123089417055,-152.43347674350747,-59.46513660901679,-152.4039935672082,-59.424129849216925
1048.582,0.953,-0.26,-0.5,-0.018,-0.117,0.118,-152.52556837372288,-59.401893843947,-152.39292537371864,-59.388405370519465,-152.98381518357363,-59.07114537625882,-152.68837027864612,-59.229775373389145
1048.639,0.958,-0.26,-0.505,0.028,0.196,0.08,-152.75825848264267,-59.336179676258865,-152.44408245515217,-59.367627502413605,-152.58149981493796,-59.52875949799262,-152.51279113504506,-59.44819350020311
1048.695,0.954,-0.258,-0.497,-0.003,0.196,0.057,-152.5655109222079,-59.588053472423496,-152.46112462811794,-59.38979401952118,-152.4332263133579,-60.03012393236596,-152.44717547073793,-59.70995897594357
1048.752,0.952,-0.265,-0.5,0.036,0.013,0.019,-152.07641028486162,-59.27206253418738,-152.39729031042873,-59.36895856214602,-152.17485528308754,-59.4939959232115,-152.28607279675813,-59.43147724267876
1048.808,0.956,-0.261,-0.494,-0.025,-0.003,-0.004,-152.15071090773958,-59.69692512082068,-152.35536212232478,-59.41841707007976,-152.11622804479012,-59.99804591363732,-152.23579508355743,-59.70823149185854
1048.864,0.954,-0.265,-0.5,0.196,-0.163,0.141,-152.07641028486162,-59.32484973680104,-152.29609737121433,-59.411370506805724,-152.07028906227055,-59.47305843132115,-152.18319321674244,-59.44221446906344
1048.92,0.957,-0.264,-0.506,0.265,0.013,-0.057,-152.4471884232822,-59.189273261638185,-152.29946226114322,-59.37498748608541,-152.58359669121342,-59.07918206026951,-152.44152947617832,-59.22708477317746
1048.976,0.946,-0.267,-0.499,-0.209,-0.018,-0.027,-151.8500944298715,-59.11015177444775,-152.23182222281486,-59.33168752193819,-151.4948109104366,-59.12406747056402,-151.8633165666257,-59.22787749625111
1049.033,0.951,-0.251,-0.509,-0.247,0.035,-0.095,-153.75099798663143,-59.17276291683775,-152.4733132866031,-59.30047367320373,-152.68646168666925,-59.15843823999727,-152.57988748663615,-59.2294559566005
1049.089,0.957,-0.261,-0.506,-0.01,-0.056,-0.111,-152.7148512551617,-59.25032267796548,-152.51324675641544,-59.2896979395347,-152.86324856555257,-59.68343143371362,-152.68824766098402,-59.48656468662416
1049.145,0.953,-0.26,-0.507,-0.155,0.119,-0.271,-152.85031830221683,-59.12563472762416,-152.57686769567502,-59.252352375213384,-152.87752105571775,-59.18603312323575,-152.7271943756964,-59.21919274922457
1049.201,0.952,-0.264,-0.497,-0.125,0.127,-0.065,-152.0233353300108,-59.41095853464598,-152.50105852968554,-59.26438867697764,-151.99376905640327,-59.42839383235281,-152.24741379304442,-59.34639125466522
1049.257,0.956,-0.261,-0.5,-0.025,-0.01,-0.011,-152.43544106570084,-59.460188154827556,-152.49322047187732,-59.290046153595085,-153.1747340277226,-59.50954524257169,-152.83397724979994,-59.39979569808339
1049.313,0.963,-0.252,-0.493,0.165,0.028,0.05,-152.92587209467982,-60.10345526692255,-152.5544327580406,-59.41274856475979,-152.9595869049092,-59.98924829686021,-152.7570098314749,-59.70099843081
1049.37,0.959,-0.258,-0.505,-0.079,0.028,0.027,-152.9379158852027,-59.4027817331139,-152.62293811275907,-59.41184037686092,-152.94125820698417,-59.470609204945575,-152.78209815987162,-59.44122479090325
1049.426,0.957,-0.261,-0.498,-0.025,-0.01,0.088,-152.34112889497263,-59.565210373619706,-152.586578333045,-59.43840151834572,-151.92646560089253,-59.625018945775494,-152.25652196696876,-59.531710232060604
1049.482,0.967,-0.257,-0.486,-0.086,-0.026,0.08,-152.12981917011317,-60.38048758909274,-152.5233367381503,-59.59122255277636,-152.06518231008963,-60.14381797922656,-152.29425952411998,-59.86752026600146
1049.538,0.959,-0.26,-0.496,-0.148,0.15,0.034,-152.336761672182,-59.71693010558463,-152.50213684708683,-59.61401214334877,-152.3563488501567,-59.690078418672094,-152.42924284862175,-59.65204528101043
1049.594,0.954,-0.264,-0.509,0.143,0.119,0.05,-152.5858535685166,-58.99250952053381,-152.50834870957112,-59.52140196050465,-152.5003260035301,-59.20771414489337,-152.5043373565506,-59.36455805269901
1049.65,0.958,-0.261,-0.504,0.257,-0.133,0.141,-152.6222972286683,-59.35520012810016,-152.5146329652674,-59.50774510082688,-152.91840602502555,-59.72172176840397,-152.71651949514649,-59.614733434615424
1049.706,0.955,-0.265,-0.493,0.12,0.081,-0.065,-151.74084329215836,-59.62617590632119,-152.3884625465634,-59.52748734957978,-151.7242328661839,-59.63086716822245,-152.05634770637366,-59.57917725890111
1049.762,0.957,-0.259,-0.504,0.02,-0.003,0.065,-152.80187205149088,-59.3695813357067,-152.4482996630097,-59.50853326123899,-152.63142489453318,-59.408364153785875,-152.53986227877144,-59.45844870751243
1049.818,0.958,-0.263,-0.52,0.081,-0.102,0.004,-153.17111747423968,-58.68898171136439,-152.55713654126808,-59.388789579126964,-152.9712436286419,-58.95333408149998,-152.76419008495498,-59.17106183031348
1049.874,0.957,-0.265,-0.501,-0.025,1.89,0.057,-152.12375108497315,-59.36453635902404,-152.49430278723977,-59.29412593118642,-152.19559156724063,-59.38138983041176,-152.34494717724021,-59.33775788079909
1049.93,0.954,-0.26,-0.503,0.112,0.127,-0.095,-152.6656204546129,-59.30978292978219,-152.51696189710128,-59.28955122457126,-153.1930816356641,-59.235206033538816,-152.8550217663827,-59.262378629055036
1049.986,0.96,-0.265,-0.504,0.043,-0.064,0.027,-152.26489133756212,-59.32580548387932,-152.47751010018368,-59.29741184907284,-152.12865744053266,-59.334440381492,-152.30308377035817,-59.31592611528242
1050.042,0.958,-0.261,-0.5,-0.048,-0.087,0.034,-152.43544106570084,-59.512565614020865,-152.47353832531434,-59.334788108336774,-152.94314637465274,-59.794472117554335,-152.70834234998352,-59.56463011294555
1050.098,0.956,-0.257,-0.516,-0.163,-0.209,-0.019,-153.5238483318973,-58.910417733474084,-152.64671247509608,-59.27877069947024,-153.26788059624963,-59.325913422128465,-152.95729653567287,-59.302342060799354
1050.155,0.95,-0.262,-0.506,0.059,-0.003,-0.095,-152.62548617392648,-59.04480379605844,-152.64852015353438,-59.23964751832659,-152.31812884387054,-58.90772466834232,-152.48332449870247,-59.07368609333446
1050.211,0.953,-0.259,-0.497,-0.064,0.051,0.134,-152.47477425625567,-59.54119593117083,-152.63177707420667,-59.28075815754722,-152.43704016245738,-59.42934274889923,-152.534408618332,-59.35505045322323
1050.267,0.957,-0.264,-0.506,-0.033,-0.11,0.156,-152.4471884232822,-59.189273261638185,-152.61047004095553,-59.26979213335211,-152.45199911003846,-58.9132963009799,-152.531234575497,-59.091544217166
1050.324,0.951,-0.26,-0.496,0.043,0.005,0.202,-152.336761672182,-59.5074936980773,-152.57005444440333,-59.30460447002392,-152.33390031621505,-59.41544512121689,-152.4519773803092,-59.360024795620404
1050.38,0.965,-0.259,-0.501,0.043,0.005,0.202,-152.66257035409149,-59.69614426502306,-152.5853382745291,-59.36554165464121,-152.91400103180672,-59.91896504422769,-152.74966965316793,-59.642253349434455
1050.436,0.957,-0.261,-0.508,-0.125,-2.003,0.072,-152.80682918422033,-59.171755952956715,-152.62957906852705,-59.431748191583935,-152.92653912044136,-59.301283650807335,-152.7780590944842,-59.366515921195635
1050.493,0.953,-0.263,-0.497,-0.048,-0.033,0.057,-152.11332360271734,-59.45818771800902,-152.55537783776427,-59.43750752540045,-151.94199881772354,-59.48711725996055,-152.2486883277439,-59.4623123926805
1050.549,0.956,-0.264,-0.487,0.013,1.875,-0.126,-151.53812435929257,-59.90986310728355,-152.39516412342562,-59.423857570044845,-151.45195263487065,-60.01554329827845,-151.92355837914812,-59.71970043416165
1050.605,0.957,-0.26,-0.503,-0.003,0.081,0.095,-152.6656204546129,-59.38868014662363,-152.4313763279267,-59.419002122652124,-152.11571590114218,-59.67257047242318,-152.27354611453444,-59.54578629753765
1050.662,0.955,-0.263,-0.509,0.013,-0.094,0.172,-152.6746279197141,-59.039284792588894,-152.4645846919117,-59.367831395302694,-152.50002716039185,-59.2179200647011,-152.48230592615178,-59.292875730001896
1050.719,0.948,-0.263,-0.497,-0.056,-0.079,-0.103,-152.11332360271734,-59.326109122613914,-152.4090098412041,-59.36635893904387,-151.6226960034013,-59.46381572220228,-152.0158529223027,-59.415087330623074
1050.775,0.957,-0.261,-0.501,-0.086,0.142,-0.011,-152.48237518212156,-59.4470131244178,-152.41936615739172,-59.373364525778484,-152.7506527811343,-59.44790363822316,-152.585009469263,-59.410634082000826
1050.831,0.952,-0.267,-0.5,0.013,-0.003,-0.027,-151.89778300272587,-59.23030669491758,-152.33164835009342,-59.35252407970185,-151.63217120618825,-59.160953527920384,-151.98190977814085,-59.25673880381112
1050.887,0.958,-0.258,-0.51,-0.216,-0.117,0.011,-153.16595652922553,-59.17958868426831,-152.46491340670397,-59.331270174761286,-152.79214304066014,-59.170424058871376,-152.62852822368205,-59.25084711681633
1050.944,0.96,-0.257,-0.502,-0.071,-0.071,0.256,-152.88972392152854,-59.567455700711804,-152.5330452138792,-59.37115528990385,-152.90819848927435,-59.691210698659205,-152.72062185157677,-59.53118299428152
1051.0,0.961,-0.252,-0.497,-0.117,0.005,-0.004,-153.1130658075233,-59.89264990926441,-152.63096747951764,-59.45418426830759,-153.44484641707467,-60.207001878257515,-153.03790694829615,-59.83059307328256
1051.056,0.954,-0.278,-0.498,-0.254,-0.094,0.004,-150.82830659625242,-59.127290022001155,-152.36360368315187,-59.41186170067872,-152.46502189117427,-59.8048237824666,-152.41431278716306,-59.608342741572656
1051.112,0.949,-0.27,-0.502,0.013,-0.018,-0.088,-151.72647606631244,-59.009459233995095,-152.25395856249656,-59.35154043263619,-151.9840385602013,-59.28494876085272,-152.11899856134892,-59.31824459674446
1051.168,0.957,-0.267,-0.498,0.036,0.234,0.027,-151.80225703114763,-59.44029454706395,-152.16781229767855,-59.353749403147546,-151.4828677343668,-59.7075117898173,-151.82534001602266,-59.530630596482425
1051.225,0.958,-0.267,-0.503,-0.018,-0.064,-0.08,-152.03996202737676,-59.27113786086675,-152.131718257318,-59.343803898331295,-152.01477217337492,-59.29856355617933,-152.07324521534645,-59.32118372725532
1051.282,0.955,-0.265,-0.5,-0.01,0.013,0.072,-152.07641028486162,-59.3511819948911,-152.1058542638627,-59.343711725561676,-152.62552194246888,-59.815520893894856,-152.36568810316578,-59.579616309728266
1051.338,0.959,-0.264,-0.503,0.112,-0.087,-0.057,-152.30722479706333,-59.35928193979807,-152.11481651320454,-59.34971659381752,-152.26178867628153,-59.286786253323996,-152.18830259474305,-59.31825142357076
1051.395,0.952,-0.261,-0.504,-0.102,-0.285,-0.065,-152.6222972286683,-59.197102963087005,-152.18381781676663,-59.33878581745089,-153.19831658855682,-59.043993499477224,-152.6910672026617,-59.19138965846406
1051.451,0.952,-0.264,-0.499,0.028,-0.003,-0.08,-152.11855798960363,-59.33221276166074,-152.16025733344935,-59.336153242002005,-152.319614266528,-59.282892065756606,-152.23993579998867,-59.309522653879306
1051.507,0.958,-0.257,-0.5,0.12,-0.003,-0.034,-152.7968360560293,-59.594345607847806,-152.2427788918692,-59.37527989003474,-153.05900316093482,-59.76541239316413,-152.650891026402,-59.57034614159943
1051.564,0.951,-0.255,-0.505,-0.094,-0.026,-0.08,-153.20848447058083,-59.25248872141783,-152.3923928786027,-59.35730496659784,-153.21727284780127,-59.268797131884156,-152.80483286320197,-59.313051049241
1051.62,0.957,-0.262,-0.499,0.028,-0.178,0.134,-152.29827694532324,-59.50515824288923,-152.37611304916612,-59.38828936886819,-152.31300631333596,-59.48782884919986,-152.34455968125104,-59.43805910903403
1051.676,0.953,-0.255,-0.505,0.12,-0.323,0.156,-153.20848447058083,-59.305351005320055,-152.50100965477077,-59.39071984993949,-153.25991645576877,-59.27335189728735,-152.8804630552698,-59.33203587361342
1051.732,0.958,-0.254,-0.504,0.303,-0.033,-0.218,-153.25334632642063,-59.496391766803484,-152.61087272206439,-59.40846733785777,-153.2478205379038,-59.78558400147215,-152.92934662998408,-59.59702566966496
1051.789,0.958,-0.262,-0.51,-0.201,0.013,0.118,-152.8092787536748,-59.09952254724829,-152.66326004677285,-59.35936922811347,-152.9050167672741,-59.24831819368295,-152.78413840702348,-59.30384371089821
1051.845,0.949,-0.266,-0.5,-0.163,0.035,0.195,-151.98702257693284,-59.17169052271351,-152.57674096456853,-59.32609304276127,-151.72302528474933,-59.14577122869261,-152.1498831246589,-59.23593213572694
1051.901,0.958,-0.263,-0.485,-0.071,1.875,0.08,-151.53043810465556,-60.062048559462596,-152.42232583505196,-59.35035146995975,-151.5315946482236,-59.733229871148644,-151.97696024163778,-59.54179067055419
1051.958,0.957,-0.257,-0.492,0.028,0.081,-0.08,-152.41933631043497,-59.88540340601774,-152.4198339306571,-59.43395838910765,-152.74078426071517,-59.94460976759234,-152.58030909568612,-59.68928407835
1052.014,0.949,-0.258,-0.508,-0.018,0.096,0.05,-153.07516843706014,-59.02020448309444,-152.52344085708611,-59.37109785424274,-152.91088348101349,-59.46390896061312,-152.7171621690498,-59.41750340742793
1052.07,0.958,-0.262,-0.504,0.089,0.051,-0.042,-152.53272766139187,-59.33481634507057,-152.5249493896451,-59.366814035421214,-151.8684242055063,-59.10788498244724,-152.1966867975757,-59.23734950893423
1052.126,0.958,-0.262,-0.501,0.066,-0.087,-0.057,-152.39249825695174,-59.45267177479015,-152.50526393206164,-59.38801524675386,-152.61193599019705,-59.588367921268365,-152.55859996112935,-59.48819158401111
1052.183,0.954,-0.26,-0.505,-0.117,-0.01,0.195,-152.75825848264267,-59.230906675247,-152.55418959362055,-59.36789895757874,-152.80147845771003,-59.09471616195188,-152.67783402566528,-59.23130755976531
1052.239,0.948,-0.262,-0.503,-0.163,0.104,-0.095,-152.4861306992901,-59.1098662420817,-152.5562644501301,-59.32519373191217,-151.7104253785494,-59.152036114461424,-152.13334491433974,-59.2386149231868
1052.296,0.952,-0.259,-0.501,0.02,0.013,-0.004,-152.66257035409149,-59.356484338783005,-152.57668005261388,-59.33052898490711,-152.87771581838626,-59.40243848420472,-152.72719793550007,-59.36648373455591
1052.352,0.955,-0.264,-0.494,-0.079,-0.133,-0.027,-151.87937547453814,-59.60791520548394,-152.47558885578084,-59.381821953993615,-151.93718533725263,-59.59297737149133,-152.20638709651672,-59.487399662742476
1052.408,0.956,-0.265,-0.509,-0.056,0.043,-0.004,-152.49722167003046,-59.02514408577352,-152.48160213474677,-59.32676070228386,-152.3625484810941,-59.167479859636025,-152.42207530792044,-59.24712028095995
1052.465,0.955,-0.256,-0.496,0.127,0.135,0.042,-152.7004277886672,-59.69501393607572,-152.5101741074485,-59.37902401643531,-152.68947080587304,-59.71005790150243,-152.59982245666077,-59.54454095896887
1052.522,0.957,-0.263,-0.498,-0.064,-1.934,-0.004,-152.1609079922253,-59.52378267584538,-152.45984114783087,-59.498156264817496,-151.7297847420859,-59.23819146824942,-152.0948129449584,-59.36817386653345
1052.578,0.951,-0.259,-0.502,0.066,0.081,-0.103,-152.70915037758485,-59.29048570426556,-152.4952427463684,-59.46513149192585,-152.89656483767138,-59.30624425373836,-152.6959037920199,-59.38568787283211
1052.634,0.939,-0.265,-0.515,-0.224,0.173,0.065,-152.77132082290876,-58.3334822229296,-152.5504227446288,-59.28036564572506,-152.82879683809102,-58.7954332351646,-152.6896097913599,-59.03789944044483
1052.69,0.954,-0.261,-0.51,0.165,0.035,-0.05,-152.89823590832015,-59.013914385967304,-152.60051376177557,-59.230297155408664,-152.990613334687,-59.32368610945919,-152.79556354823129,-59.276991632433926
1052.746,0.951,-0.26,-0.503,0.028,1.89,0.057,-152.6656204546129,-59.23051791368764,-152.61510513000925,-59.1328785467452,-151.8128535255255,-59.098472367700445,-152.2139793277674,-59.11567545722282
1052.802,0.959,-0.262,-0.5,-0.041,0.104,-0.019,-152.34546152475534,-59.51812533392197,-152.58063069810993,-59.1812613864887,-152.45243080007043,-59.607081893897885,-152.51653074909018,-59.39417164019329
1052.858,0.954,-0.262,-0.499,0.059,-0.01,-0.103,-152.29827694532324,-59.42643742494356,-152.537361227857,-59.21592229118492,-152.01689138155203,-59.08653388775988,-152.2771263047045,-59.1512280894724
1052.914,0.939,-0.262,-0.5,-0.132,-0.049,-0.164,-152.34546152475534,-58.987561399465335,-152.5152405323898,-59.17968339982144,-152.88004597403597,-58.83235037036391,-152.6976432532129,-59.00601688509268
1052.971,0.955,-0.26,-0.503,-0.3,-0.041,0.027,-152.6656204546129,-59.3361227568777,-152.55375095116673,-59.20197742487947,-152.6889663859786,-59.31816166627498,-152.62135866857267,-59.260069545577224
1053.027,0.953,-0.268,-0.511,-0.186,0.142,-0.011,-152.3247044797015,-58.8063104914549,-152.5277731496658,-59.12979343830511,-152.31964583459794,-58.799111895380406,-152.42370949213188,-58.96445266684276
1053.083,0.957,-0.257,-0.503,-0.018,1.883,-0.027,-152.93594831650006,-59.44952838188073,-152.5925369370931,-59.08541238317963,-152.73171486677683,-59.413347217950395,-152.66212590193496,-59.24937980056501
1053.139,0.958,-0.265,-0.499,-0.071,0.043,0.179,-152.02892141757218,-59.4691170398964,-152.50967489449314,-59.141131584059906,-151.6354965539885,-59.4950526968106,-152.0725857242408,-59.318092140435255
1053.195,0.956,-0.26,-0.509,0.135,0.043,0.126,-152.94180483899322,-59.12622091556377,-152.56974264473388,-59.13694186180176,-152.48805106497605,-59.24996137892199,-152.52889685485496,-59.19345162036187
1053.252,0.958,-0.26,-0.506,0.127,0.035,-0.126,-152.8043603594678,-59.29684408627112,-152.60235195580256,-59.16059075768005,-153.6904441340992,-59.428154976137556,-153.1463980449509,-59.2943728669088
1053.308,0.949,-0.263,-0.501,-0.102,0.173,0.011,-152.30276854779072,-59.19473830593237,-152.56335631122886,-59.15912440642725,-152.5137181285804,-59.24021499768664,-152.53853721990464,-59.19966970205695
1053.365,0.956,-0.265,-0.498,-0.155,0.112,0.126,-151.98128385290926,-59.45593225472224,-152.48000575342334,-59.20228350688922,-151.73412034478972,-59.55390082382321,-152.10706304910653,-59.37809216535622
1053.421,0.956,-0.251,-0.5,0.211,0.02,0.088,-153.34334893371513,-59.66321654820867,-152.60302596065944,-59.27798973628742,-152.8981167179292,-59.635119572681816,-152.7505713392943,-59.45655465448462
1053.477,0.961,-0.258,-0.506,-0.086,0.043,0.027,-152.98381027613473,-59.41568100773557,-152.67044087450273,-59.30500537741334,-153.0849822898398,-59.15607066984998,-152.87771158217126,-59.23053802363166
1053.534,0.96,-0.262,-0.501,0.104,-0.087,0.027,-152.39249825695174,-59.50494764304537,-152.62771464849388,-59.34921810017462,-152.38984216072637,-59.498942980176295,-152.50877840461013,-59.42408054017545
1053.59,0.956,-0.261,-0.507,-0.125,-0.033,0.072,-152.76091192493752,-59.18468418466963,-152.65860769643416,-59.33448997067411,-152.87431466878581,-59.08580550794236,-152.76646118261,-59.21014773930824
1053.646,0.951,-0.27,-0.501,-0.109,0.043,0.011,-151.6787887619912,-59.10171890109627,-152.51402372489062,-59.304091242365,-151.75337535264345,-59.10294355612748,-152.13369953876702,-59.20351739924624
1053.702,0.958,-0.259,-0.499,0.043,0.02,0.011,-152.5689687791425,-59.59303995298787,-152.51810869800772,-59.35527786299945,-152.53333438038618,-59.57524274761003,-152.52572153919695,-59.46526030530474
1053.758,0.958,-0.262,-0.5,0.043,-0.01,0.004,-152.34546152475534,-59.4919870364357,-152.48676089674223,-59.3859758512214,-151.59918235353354,-59.154905352129504,-152.04297162513788,-59.27044060167545
1053.815,0.953,-0.265,-0.503,-0.056,-0.094,-0.302,-152.21799098888474,-59.18072124575492,-152.44360091368299,-59.36786775105614,-152.80761531101547,-59.20453626906865,-152.62560811234923,-59.2862020100624
1053.871,0.954,-0.261,-0.5,-0.125,0.058,0.034,-152.43544106570084,-59.407647876379734,-152.44284258262968,-59.37935571892324,-152.15740659570508,-59.559996281674906,-152.30012458916738,-59.469676000299074
1053.927,0.953,-0.265,-0.496,-0.018,-2.01,0.08,-151.88556009501372,-59.45568962417108,-152.35036399176536,-59.494401120281125,-151.24620192470087,-59.07083043225872,-151.79828295823313,-59.28261577626992
1053.983,0.958,-0.26,-0.501,0.097,-0.087,0.072,-152.57239924249382,-59.493677999521545,-152.3712270002307,-59.506246178522304,-152.301663585879,-59.40552894223375,-152.33644529305485,-59.45588756037803
1054.04,0.955,-0.268,-0.504,-0.033,-0.041,-0.355,-151.9983651873636,-59.13233440857419,-152.30602668470758,-59.457059855753776,-151.7604876596693,-58.891253002900825,-152.03325717218843,-59.1741564293273
1054.096,0.952,-0.263,-0.503,-0.01,0.035,-0.134,-152.3966047261581,-59.1954992828812,-152.31027161897572,-59.41898382868685,-152.6746069935314,-59.3262330269314,-152.49243930625357,-59.372608427809126
1054.152,0.938,-0.268,-0.508,-0.148,0.051,0.065,-152.18570614422475,-58.519914842915576,-152.28785311739986,-59.277630139427266,-152.35226988686685,-58.79877609347699,-152.32006150213334,-59.038203116452124
1054.208,0.96,-0.267,-0.5,-0.109,0.02,-0.149,-151.89778300272587,-59.44064489317205,-152.2208317730445,-59.29850658741472,-152.04973728103354,-59.258606177711215,-152.135284527039,-59.27855638256297
1054.264,0.957,-0.264,-0.497,0.005,-2.01,0.072,-152.0233353300108,-59.54227000751081,-152.17593168551434,-59.42912832174722,-152.08635333744357,-59.663105045821915,-152.13114251147897,-59.54611668378457
1054.32,0.964,-0.257,-0.509,0.211,0.035,-0.111,-153.21026064329752,-59.395873807123216,-152.31407712669014,-59.42062401532586,-153.00375644688475,-59.44968392590265,-152.65891678678744,-59.43515397061425
1054.376,0.952,-0.263,-0.502,-0.224,0.104,-0.157,-152.34975997087932,-59.23485390446881,-152.32333916973113,-59.384616187496455,-151.97126685400798,-59.10999998298038,-152.14730301186955,-59.247308085238416
1054.432,0.961,-0.263,-0.505,-0.048,0.074,0.233,-152.48985672320333,-59.353794075271566,-152.34514236225894,-59.373105766016295,-152.86675810706234,-59.534471238150196,-152.60595023466064,-59.45378850208324
1054.488,0.958,-0.261,-0.5,0.059,0.242,-0.004,-152.43544106570084,-59.512565614020865,-152.35117504334403,-59.38031986266456,-151.67613376516206,-59.483349309338216,-152.01365440425303,-59.431834586001386
