time,accel_x,accel_y,accel_z,gyro_x,gyro_y,gyro_z,roll_raw,pitch_raw,roll_filtered,pitch_filtered
1021.342,0.955,-0.26,-0.511,0.097,-1.667,-0.111,-153.03272296916714,-59.021160610700186,-0.00014294924668658714,-0.00021947094113975907
1021.398,0.951,-0.258,-0.512,-0.033,0.929,0.164,-153.25617942015776,-58.915430359994716,-0.0877052374524169,0.022239941593021027
1021.455,0.96,-0.259,-0.5,0.074,-0.255,0.019,-152.61584336600367,-59.60573665936551,-0.2563782951052411,-0.056392019868727494
1021.511,0.954,-0.261,-0.505,-0.018,-0.3,0.027,-152.66864656179987,-59.21058353038578,-0.5191247720127099,-0.17134114246763424
1021.567,0.96,-0.263,-0.497,0.265,0.272,0.324,-152.11332360271734,-59.64137971703075,-0.858425500662853,-0.29164005128431536
1021.623,0.954,-0.256,-0.504,-0.071,-0.201,-0.004,-153.0723221489595,-59.351289049016906,-1.3195602960598718,-0.47686379419253394
1021.68,0.966,-0.26,-0.486,-0.071,0.051,-0.057,-151.85413537169637,-60.29193399770913,-1.8882131902360633,-0.69472763279869
1021.736,0.955,-0.251,-0.497,0.02,0.486,0.256,-153.2048465278248,-59.756900460900134,-2.5768708327649867,-0.9335329735260373
1021.793,0.958,-0.258,-0.504,0.081,-0.461,-0.157,-152.89187712919824,-59.41603296997967,-3.396401641158496,-1.2769849662392823
1021.849,0.96,-0.265,-0.499,-0.193,0.135,-0.095,-152.02892141757218,-59.52137630274939,-4.3717708739949765,-1.6440211275102592
1021.905,0.956,-0.264,-0.495,-0.003,0.089,-0.05,-151.92751306414706,-59.59473330040163,-5.496058366327015,-2.077024535829907
1021.962,0.957,-0.259,-0.5,0.02,-0.003,0.095,-152.61584336600367,-59.527415305892994,-6.805312006155101,-2.585603655062871
1022.019,0.957,-0.262,-0.503,-0.3,-0.102,0.08,-152.4861306992901,-59.34784806711403,-8.327863639219938,-3.174858872247191
1022.075,0.951,-0.256,-0.497,0.02,-0.194,-0.141,-152.74743246828294,-59.550326105583615,-10.040191228585783,-3.8512247604360814
1022.131,0.955,-0.26,-0.499,-0.033,0.15,0.019,-152.4785898201591,-59.493983158256476,-11.976289687254361,-4.595216500519844
1022.188,0.959,-0.259,-0.494,0.188,0.196,-0.095,-152.3323594404728,-59.81663560970914,-14.145793203911058,-5.4375802036518355
1022.244,0.94,-0.263,-0.502,-0.071,-0.285,-0.134,-152.34975997087932,-58.91443630551392,-16.574257371166656,-6.38990610994444
1022.3,0.958,-0.259,-0.497,-0.041,0.035,0.05,-152.47477425625567,-59.67203930130939,-19.263648291388183,-7.437413286299367
1022.356,0.939,-0.26,-0.515,-0.125,1.875,0.042,-153.21287327022856,-58.433953796753535,-22.239331958506675,-8.46709055026935
1022.413,0.95,-0.261,-0.498,-0.041,0.035,-0.065,-152.34112889497263,-59.381169185829506,-25.48507017418083,-9.729722102404835
1022.469,0.956,-0.255,-0.504,-0.048,-0.362,0.149,-153.1627618941849,-59.423969219909445,-29.01015829202569,-11.117616008351106
1022.526,0.938,-0.261,-0.503,-0.209,0.15,-0.05,-152.57580263647642,-58.86214630776661,-32.82449148022707,-12.578161981298916
1022.582,0.952,-0.262,-0.511,0.005,-0.239,-0.042,-152.85487118706664,-58.901386867718045,-36.88138300005001,-14.157042452299997
1022.638,0.962,-0.251,-0.497,0.158,0.501,0.072,-153.2048465278248,-59.938641974233775,-41.192655385986264,-15.82133198116098
1022.694,0.958,-0.255,-0.503,-0.102,-0.522,-0.279,-153.11689463024138,-59.51599130473496,-45.75388936607502,-17.623664729804098
1022.75,0.957,-0.26,-0.501,-0.125,0.257,0.164,-152.57239924249382,-59.46750002071908,-50.51708261045552,-19.466529719542766
1022.806,0.953,-0.261,-0.503,-0.148,-0.216,-0.042,-152.57580263647642,-59.262971713668925,-55.47467943449227,-21.404581136861584
1022.863,0.958,-0.258,-0.504,-0.003,0.142,0.156,-152.89187712919824,-59.41603296997967,-60.637084849396366,-23.406889188968545
1022.92,0.946,-0.263,-0.506,-0.041,0.081,-0.172,-152.536265202184,-58.917597389395745,-65.93246423670438,-25.450460117838254
1022.976,0.956,-0.26,-0.502,-0.163,-0.285,0.034,-152.61908305950791,-59.40184387190384,-71.30981410635196,-27.561104306146607
1023.033,0.951,-0.261,-0.509,-0.109,0.867,0.149,-152.85260364302823,-58.97356771309789,-76.80796367227097,-29.63530987502996
1023.089,0.96,-0.263,-0.498,-0.239,-0.445,-0.004,-152.1609079922253,-59.60210955973212,-82.28421659662402,-31.810917303415945
1023.146,0.954,-0.26,-0.506,-0.079,0.402,-0.05,-152.8043603594678,-59.19149240384792,-87.8319368158827,-33.941754867166225
1023.202,0.954,-0.267,-0.503,-0.025,-0.407,-0.065,-152.03996202737676,-59.165734866933356,-93.27228216165469,-36.089716968915134
1023.259,0.96,-0.263,-0.501,0.173,0.471,0.149,-152.30276854779072,-59.48438581748975,-98.70669989859502,-38.20231129608893
1023.316,0.954,-0.258,-0.502,-0.232,-0.224,0.057,-152.79936402875168,-59.39002248769115,-104.10754884751773,-40.317816516826625
1023.372,0.958,-0.262,-0.495,-0.14,0.058,0.011,-152.10804742995913,-59.68878386298083,-109.30736777909203,-42.37166298168774
1023.429,0.967,-0.257,-0.507,-0.109,-0.369,-0.111,-153.11939697277333,-59.55234914057775,-114.47860370653233,-44.40980948972435
1023.485,0.951,-0.26,-0.512,-0.01,0.348,0.24,-153.07797039218974,-58.875555223010565,-119.43672569753937,-46.2908798521648
1023.541,0.957,-0.268,-0.499,0.043,-0.133,0.111,-151.76090414270442,-59.380223853212186,-124.14640485567026,-48.16086956296634
1023.598,0.956,-0.263,-0.494,-0.003,-0.201,-0.149,-151.96966887497527,-59.65507927824894,-128.7408056997014,-49.99955652776907
1023.655,0.953,-0.262,-0.507,0.112,0.226,-0.095,-152.67164895763867,-59.085108755071424,-133.1746122408099,-51.70413904798361
1023.712,0.958,-0.26,-0.505,0.074,-0.354,-0.019,-152.75825848264267,-59.336179676258865,-137.41053702474855,-53.375732073698614
1023.768,0.955,-0.26,-0.5,0.036,0.28,-0.141,-152.52556837372288,-59.45449498811502,-141.3672738300021,-54.915551834858334
1023.824,0.95,-0.263,-0.503,-0.056,-0.415,-0.111,-152.3966047261581,-59.142471279684834,-145.10778116963823,-56.39013102878758
1023.88,0.952,-0.259,-0.508,-0.201,0.287,0.164,-152.98557937421407,-59.07985865751888,-148.67864645040632,-57.7390841175165
1023.936,0.96,-0.257,-0.506,0.265,-0.117,0.103,-153.07375090013153,-59.409600089606315,-152.0157180680762,-59.048181247193455
1023.992,0.958,-0.269,-0.507,-0.094,-0.14,-0.149,-152.0508306322378,-59.0739677393293,-155.09453409489828,-60.25385974254211
1024.048,0.956,-0.264,-0.505,-0.27,0.02,-0.103,-152.4006789730257,-59.20209671470215,-157.99757602738163,-61.3781729223612
1024.104,0.956,-0.265,-0.508,0.234,-0.3,0.027,-152.45104309089703,-59.06423082333258,-160.67324148286676,-62.43110673217778
1024.16,0.957,-0.261,-0.515,-0.109,-0.003,0.08,-153.12428536342998,-58.89728155596709,-163.21390562970876,-63.37961395252666
1024.216,0.957,-0.265,-0.5,-0.018,-0.3,0.141,-152.07641028486162,-59.40372424373905,-165.48698311881876,-64.30296958977287
1024.272,0.956,-0.261,-0.505,-0.3,-0.209,0.027,-152.66864656179987,-59.26332171337025,-167.62945716231525,-65.13862526277515
1024.328,0.957,-0.263,-0.499,0.097,0.188,-0.103,-152.20834318954937,-59.48446711840547,-169.54058739522873,-65.89799819637493
1024.385,0.955,-0.26,-0.507,0.059,-0.102,0.111,-152.85031830221683,-59.17851279581061,-171.37665175847533,-66.60523202502536
1024.441,0.951,-0.26,-0.499,0.036,-0.239,-0.225,-152.4785898201591,-59.38869707474893,-172.96914013330792,-67.24804585584025
1024.497,0.952,-0.261,-0.489,-0.064,0.104,-0.057,-151.9092718105408,-59.790249313606495,-174.37245631803376,-67.83801038001356
1024.554,0.95,-0.264,-0.504,-0.033,-0.323,-0.073,-152.35402463626133,-59.082522000513364,-175.70408347119124,-68.36247234300464
1024.61,0.959,-0.263,-0.496,-0.064,0.219,-0.004,-152.06558938201485,-59.65463567177578,-176.82383446061277,-68.8207422666311
1024.666,0.959,-0.265,-0.492,-0.094,-0.125,-0.248,-151.69230013276558,-59.769800111147305,-177.78683179161214,-69.25259030381027
1024.722,0.953,-0.26,-0.506,0.013,0.043,-0.095,-152.8043603594678,-59.1650525474006,-178.69485446021733,-69.58354604278371
1024.778,0.956,-0.263,-0.497,-0.086,-1.995,-0.111,-152.11332360271734,-59.5369426593461,-179.44052315316856,-70.0000487906389
1024.834,0.961,-0.26,-0.511,-0.041,0.402,-0.073,-153.03272296916714,-59.179286355452284,-180.13417735384832,-70.2151487304754
1024.89,0.958,-0.263,-0.496,0.066,-0.278,0.21,-152.06558938201485,-59.62856675744787,-180.64826529485015,-70.45700272027156
1024.946,0.958,-0.265,-0.499,0.15,0.112,-0.034,-152.02892141757218,-59.4691170398964,-181.05667345983764,-70.6269772893259
1025.002,0.956,-0.281,-0.505,-0.041,-0.4,0.011,-150.90687773562433,-58.84645795299762,-181.3060453249644,-70.74473994025455
1025.059,0.958,-0.261,-0.5,-0.064,0.532,-0.195,-152.43544106570084,-59.512565614020865,-181.61437521777725,-70.8392113559898
1025.115,0.958,-0.263,-0.5,-0.01,-0.675,0.057,-152.25562983051745,-59.47135548825179,-181.78213676145091,-70.94727052321576
1025.172,0.956,-0.26,-0.509,-0.209,0.509,-0.057,-152.94180483899322,-59.12622091556377,-181.9663338483885,-70.95056432096344
1025.228,0.962,-0.266,-0.508,0.188,-0.262,-0.103,-152.36245420505634,-59.20170535580057,-181.97597943267183,-70.95886012593617
1025.284,0.96,-0.258,-0.504,0.188,0.264,0.065,-152.89187712919824,-59.468345771955846,-181.95654170383733,-70.93174080585275
1025.34,0.938,-0.259,-0.496,-0.086,0.051,-0.21,-152.42745303569362,-59.18240473180048,-181.8573679401962,-70.8729286218596
1025.396,0.96,-0.253,-0.503,0.295,-0.323,0.065,-153.2984222040037,-59.60822089308341,-181.74064741613742,-70.84135855014785
1025.452,0.957,-0.265,-0.499,0.036,0.119,0.134,-152.02892141757218,-59.44292664686906,-181.49622469916267,-70.75303658790607
1025.508,0.962,-0.269,-0.489,-0.071,-0.117,0.065,-151.18470859006757,-59.879772795505126,-181.15188634336107,-70.68838684761515
1025.564,0.958,-0.262,-0.503,-0.117,0.196,0.141,-152.4861306992901,-59.374086311430574,-180.8575122731691,-70.55353467188912
1025.621,0.955,-0.257,-0.502,-0.102,0.013,0.118,-152.88972392152854,-59.43661996860505,-180.57467789970235,-70.4276061934244
1025.677,0.954,-0.256,-0.494,0.112,-0.026,-0.248,-152.6059680625825,-59.74840492732158,-180.19147543428323,-70.29863581989594
1025.733,0.96,-0.264,-0.498,0.028,-0.171,0.027,-152.07102129131908,-59.58134790279543,-179.7420218410479,-70.15158519827024
1025.79,0.948,-0.257,-0.495,0.15,0.142,-0.126,-152.56202534227762,-59.53027832581525,-179.31340985664534,-69.98064363494953
1025.846,0.951,-0.258,-0.505,0.074,-0.316,0.118,-152.9379158852027,-59.19207054423312,-178.8604791796726,-69.78944631644434
1025.902,0.953,-0.264,-0.499,-0.086,0.348,-0.225,-152.11855798960363,-59.3585965873262,-178.33406819513405,-69.56511005610847
1025.958,0.964,-0.26,-0.513,0.112,-1.522,-0.103,-153.12307751998074,-59.17957489996123,-177.8454218890083,-69.41909754895812
1026.014,0.959,-0.261,-0.506,-0.102,1.173,0.126,-152.7148512551617,-59.302856208356694,-177.3193848550689,-69.12869120708271
1026.07,0.956,-0.264,-0.496,0.249,-1.14,0.156,-151.97549946792975,-59.555404187836515,-176.7064775882174,-68.97475694800579
1026.126,0.956,-0.263,-0.494,-0.01,0.562,-0.011,-151.96966887497527,-59.65507927824894,-176.09465956526293,-68.72888541760665
1026.182,0.963,-0.262,-0.505,0.074,-0.14,-0.164,-152.5791792802091,-59.42634331926718,-175.50962012037397,-68.50088869674792
1026.239,0.955,-0.266,-0.499,0.02,-0.071,-0.111,-151.9394335423924,-59.369554005008965,-174.88887700591914,-68.26732159171723
1026.295,0.961,-0.262,-0.504,-0.193,0.31,0.011,-152.53272766139187,-59.413347312008035,-174.2949716440579,-68.00654330132888
1026.352,0.952,-0.268,-0.503,0.028,0.081,0.065,-151.95116701244223,-59.091981053245775,-173.65655975178328,-67.74001800761839
1026.408,0.955,-0.254,-0.508,0.005,-0.453,-0.095,-153.434948822922,-59.259041661101016,-173.1023629145385,-67.50617044891005
1026.464,0.954,-0.258,-0.501,0.226,0.264,-0.073,-152.75288842974936,-59.429597429071066,-172.4846330688707,-67.24474854491102
1026.521,0.951,-0.267,-0.502,-0.232,-0.514,0.08,-151.9927161784209,-59.12543137706338,-171.8495432324606,-67.0087732884471
1026.577,0.959,-0.262,-0.504,0.112,0.333,-0.195,-152.53272766139187,-59.36103375127804,-171.2204319481229,-66.73822196504123
1026.633,0.954,-0.273,-0.495,-0.056,-0.392,-0.202,-151.1225987777172,-59.35121041484223,-170.50505058050803,-66.5072731701198
1026.69,0.955,-0.259,-0.505,0.081,0.257,0.126,-152.84801495429795,-59.27754587409144,-169.91819572519492,-66.24111699722168
1026.746,0.953,-0.263,-0.49,-0.209,0.066,0.088,-151.77600141309537,-59.73446098453869,-169.26427284040142,-66.0155348874464
1026.802,0.955,-0.263,-0.505,0.112,-0.308,0.195,-152.48985672320333,-59.19618852350594,-168.64978280780963,-65.77401460913278
1026.863,0.966,-0.278,-0.51,0.211,0.058,0.286,-151.40528525793445,-58.98186160419139,-167.9998318348638,-65.51549364599074
1026.92,0.958,-0.26,-0.504,0.005,0.005,0.072,-152.7120120544845,-59.37553097789164,-167.42269669620208,-65.2760825760708
1026.976,0.952,-0.26,-0.499,0.097,-0.644,-0.08,-152.4785898201591,-59.41508007860248,-166.82411836695573,-65.07375488783025
1027.032,0.954,-0.264,-0.513,-0.155,0.287,0.072,-152.76874885273887,-58.835975467032746,-166.26921993232804,-64.78438619085573
1027.088,0.955,-0.258,-0.496,0.226,-0.094,-0.218,-152.51829456653672,-59.653884532302804,-165.6861854062237,-64.57886206462344
1027.145,0.959,-0.259,-0.511,-0.048,-0.163,0.141,-153.12186024790137,-59.14667268384589,-165.17644692035526,-64.3473279206882
1027.201,0.958,-0.269,-0.5,0.288,0.684,-0.088,-151.71974850826314,-59.34646671211386,-164.55447827073442,-64.08773865847189
1027.257,0.943,-0.264,-0.516,0.104,-0.4,0.027,-152.9044475062482,-58.42309351658749,-164.03963062657385,-63.828155251685246
1027.314,0.967,-0.261,-0.493,0.005,0.532,0.027,-152.10272896905238,-60.020960305462964,-163.4895886953912,-63.638215058241705
1027.37,0.952,-0.257,-0.511,-0.056,-0.72,0.042,-153.3005570924194,-59.001395031932105,-163.03445724805854,-63.44663279724466
1027.426,0.949,-0.265,-0.51,-0.025,0.264,0.011,-152.54325771540013,-58.799812612651344,-162.5354453594146,-63.19336755954161
1027.482,0.938,-0.264,-0.503,-0.163,-0.102,0.011,-152.30722479706333,-58.80007570591456,-162.0400362849192,-62.96717489194959
1027.538,0.958,-0.259,-0.498,-0.048,-0.247,0.057,-152.5219459561066,-59.63253211476451,-161.5666340723903,-62.812921196418436
1027.594,0.951,-0.265,-0.487,-0.003,-0.27,0.034,-151.4472732145377,-59.75789376502397,-161.0293340837111,-62.67230577791982
1027.65,0.954,-0.265,-0.493,-0.048,0.608,0.095,-151.74084329215836,-59.599983142855585,-160.53102039843483,-62.47834274450942
1027.706,0.953,-0.258,-0.5,0.081,-0.11,-0.034,-152.70626595652075,-59.44288786082305,-160.10823439338296,-62.318038639815946
1027.762,0.964,-0.263,-0.498,-0.025,0.303,0.011,-152.1609079922253,-59.70598057107215,-159.66621339135025,-62.15926062814442
1027.819,0.953,-0.264,-0.496,0.02,-0.476,-0.08,-151.97549946792975,-59.47667741098086,-159.22411409900923,-62.03160070748148
1027.875,0.954,-0.258,-0.509,0.081,0.463,-0.073,-153.1206334363581,-59.113448483750226,-158.87147461443138,-61.832020828675155
1027.931,0.961,-0.258,-0.493,-0.117,-0.239,-0.118,-152.37574238956626,-59.928721475976516,-158.4893040636197,-61.73347089949657
1027.987,0.957,-0.26,-0.508,-0.025,0.112,-0.195,-152.89613292503924,-59.191904394491694,-158.15151203628866,-61.56838425463403
1028.044,0.962,-0.256,-0.488,0.12,-0.262,-0.088,-152.31893843151474,-60.194210854437024,-157.77807067363307,-61.49886744340635
1028.1,0.953,-0.258,-0.51,-0.01,-0.14,-0.218,-153.16595652922553,-59.04750547134918,-157.48358362792254,-61.344894972236354
1028.156,0.956,-0.257,-0.501,-0.01,0.188,0.103,-152.84335337909627,-59.50245189265384,-157.17765623555465,-61.21104033895788
1028.212,0.957,-0.263,-0.502,0.013,0.005,-0.057,-152.34975997087932,-59.36660891508835,-156.8479774634912,-61.08282739382305
1028.268,0.952,-0.253,-0.489,-0.033,-0.163,-0.019,-152.64374952263634,-59.95781468068837,-156.55406325835094,-61.00950065374896
1028.325,0.958,-0.257,-0.486,-0.056,0.119,0.179,-152.12981917011317,-60.149748652027355,-156.23694221630936,-60.93727046515889
1028.381,0.956,-0.266,-0.499,0.036,-0.293,-0.202,-151.9394335423924,-59.395836234368055,-155.91497078122882,-60.83767543046235
1028.438,0.955,-0.264,-0.494,0.158,0.104,-0.08,-151.87937547453814,-59.60791520548394,-155.59505442134642,-60.73545826181989
1028.494,0.955,-0.265,-0.51,-0.01,-0.384,-0.057,-152.54325771540013,-58.9595870190755,-155.34476634370168,-60.618552746037345
1028.55,0.953,-0.26,-0.503,-0.01,0.142,0.042,-152.6656204546129,-59.28340223623024,-155.11420188436585,-60.50119796189503
1028.606,0.952,-0.262,-0.503,-0.094,-0.071,0.004,-152.4861306992901,-59.216045979647575,-154.88617799053802,-60.39573717503431
1028.662,0.959,-0.261,-0.503,-0.033,-0.491,0.065,-152.57580263647642,-59.420706043084316,-154.67174770565543,-60.33109472717279
1028.719,0.949,-0.269,-0.502,-0.155,0.417,-0.042,-151.8150757151163,-59.030450119727504,-154.41998736645988,-60.19360380491238
1028.775,0.954,-0.251,-0.496,-0.079,-0.148,0.271,-153.15838244552387,-59.77077142744303,-154.2702659359861,-60.144796216466986
1028.831,0.954,-0.254,-0.507,0.135,0.119,0.088,-153.38976288630172,-59.27233239174423,-154.13341118111995,-60.050031414736075
1028.888,0.948,-0.262,-0.5,-0.117,-0.239,0.057,-152.34546152475534,-59.22836072033005,-153.94376981407666,-59.97536428428292
1028.944,0.954,-0.26,-0.505,-0.079,-0.415,-0.073,-152.75825848264267,-59.230906675247,-153.79164278159536,-59.9139008315168
1029.0,0.956,-0.264,-0.509,0.12,-0.102,-0.004,-152.5858535685166,-59.0454638025202,-153.6254669431828,-59.82601482889045
1029.056,0.951,-0.263,-0.512,0.02,1.135,0.08,-152.8117092922163,-58.81534781246126,-153.48943953679026,-59.66207488623159
1029.112,0.957,-0.265,-0.512,0.12,-0.926,-0.027,-152.63490460080314,-58.93446158914542,-153.34387956991264,-59.62332653089049
1029.168,0.959,-0.261,-0.504,0.028,1.555,-0.027,-152.6222972286683,-59.38140731898971,-153.21078175469,-59.48747938830986
1029.224,0.951,-0.268,-0.5,-0.071,-0.827,-0.164,-151.80869162620687,-59.18286429855781,-153.03432677385058,-59.47118403876789
1029.28,0.959,-0.26,-0.497,-0.132,0.73,-0.065,-152.38418711046916,-59.67747750734409,-152.91051995220295,-59.408556352669606
1029.336,0.949,-0.266,-0.5,-0.216,-0.415,-0.027,-151.98702257693284,-59.17169052271351,-152.7709697871916,-59.375453742381225
1029.392,0.953,-0.261,-0.495,0.043,-0.369,-0.08,-152.19854122006586,-59.578861758393,-152.64054158062385,-59.37003929932127
1029.448,0.954,-0.256,-0.5,0.074,0.104,0.172,-152.88755357204425,-59.50994558247634,-152.56434604100016,-59.33603062781054
1029.504,0.958,-0.265,-0.498,-0.224,-0.026,0.019,-151.98128385290926,-59.50831401948037,-152.44684181616043,-59.31142564708928
1029.561,0.956,-0.255,-0.5,0.089,0.081,-0.111,-152.97841840882296,-59.58265872028987,-152.38763690101098,-59.28781986294264
1029.617,0.967,-0.262,-0.485,0.081,-0.041,0.05,-151.6218080390183,-60.31448337017254,-152.24180398297835,-59.324388208960706
1029.674,0.938,-0.27,-0.504,0.272,-0.018,-0.073,-151.82140989004085,-58.63525691545484,-152.10673492193902,-59.24224070938718
1029.73,0.948,-0.257,-0.503,-0.086,-1.98,-0.088,-152.93594831650006,-59.21200691325614,-152.07833031778108,-59.30735845980531
1029.786,0.956,-0.279,-0.5,0.074,-0.049,0.301,-150.8384827807957,-59.08147834449998,-151.89982449995273,-59.25805472274287
1029.842,0.954,-0.261,-0.515,0.104,-0.537,-0.233,-153.12428536342998,-58.817654570679984,-151.8884716915028,-59.21890307834489
1029.899,0.954,-0.261,-0.503,-0.056,-0.194,0.027,-152.57580263647642,-59.28936265257626,-151.8494448330487,-59.19596511603442
1029.956,0.952,-0.26,-0.508,-0.086,-0.033,-0.004,-152.89613292503924,-59.059713193257295,-151.8386896005808,-59.150330415217596
1030.012,0.956,-0.257,-0.493,0.036,0.196,0.118,-152.46705106531846,-59.819677729982374,-151.79628309496678,-59.14920188554643
1030.069,0.958,-0.258,-0.5,-0.064,0.173,-0.103,-152.70626595652075,-59.573981218096854,-151.77879599557426,-59.13298414818106
1030.125,0.956,-0.258,-0.506,0.135,0.119,0.065,-152.98381027613473,-59.28459941574055,-151.77490999195666,-59.10235187409691
1030.181,0.955,-0.266,-0.496,0.005,0.318,0.072,-151.79577132837227,-59.48721722940476,-151.69812464710452,-59.07796623313097
1030.238,0.959,-0.266,-0.504,0.127,-0.026,0.057,-152.17590361574673,-59.279014813109946,-151.64549160040826,-59.05907160881101
1030.294,0.953,-0.262,-0.505,0.089,-0.163,-0.057,-152.5791792802091,-59.16376697034636,-151.6292167060247,-59.04167276927871
1030.351,0.962,-0.261,-0.496,0.043,-0.194,0.027,-152.24622055727315,-59.77411922549469,-151.59409229040276,-59.0694565497458
1030.407,0.951,-0.265,-0.507,-0.033,-0.079,0.126,-152.40472137529142,-58.97078357768839,-151.57919681814124,-59.03537248087898
1030.463,0.961,-0.266,-0.501,0.028,-0.362,-0.057,-152.03446347723525,-59.44850430249704,-151.53821718330005,-59.0514869517179
1030.52,0.96,-0.263,-0.502,0.158,-0.064,-0.019,-152.34975997087932,-59.44517388002012,-151.51499504999424,-59.05114011362587
1030.576,0.955,-0.259,-0.504,-0.148,0.142,0.027,-152.80187205149088,-59.31700474517087,-151.5440114961891,-59.03251649759712
1030.632,0.951,-0.266,-0.503,0.013,0.02,0.057,-152.1289033754148,-59.10702005482766,-151.51857714076328,-59.00756541729056
1030.688,0.952,-0.256,-0.506,0.081,-0.125,0.065,-153.1638351704382,-59.219218316600724,-151.56464758895572,-58.99992167537438
1030.745,0.958,-0.255,-0.504,-0.041,0.028,-0.126,-153.1627618941849,-59.476383283803784,-151.61640075018073,-59.002696676873846
1030.801,0.952,-0.26,-0.503,0.005,0.066,0.141,-152.6656204546129,-59.256980592252305,-151.63201480048357,-58.98961115622858
1030.857,0.953,-0.26,-0.504,0.196,0.043,-0.057,-152.7120120544845,-59.24393641638296,-151.64208092747424,-58.97831288743563
1030.913,0.953,-0.265,-0.504,-0.163,-0.178,0.065,-152.26489133756212,-59.141499505696196,-151.64143032495485,-58.9727798609567
1030.97,0.955,-0.258,-0.513,-0.086,-0.003,0.103,-153.30108042279502,-58.98228573307681,-151.70947085860794,-58.94736772511036
1031.026,0.951,-0.266,-0.505,0.013,0.058,-0.042,-152.22275820678058,-59.02861191292299,-151.69697460942353,-58.92429838187074
1031.083,0.957,-0.262,-0.502,-0.033,0.051,0.37,-152.43938777261386,-59.387152995900145,-151.70321994318311,-58.92788141926944
1031.139,0.953,-0.26,-0.502,-0.086,0.104,0.072,-152.61908305950791,-59.32288382538857,-151.72669849594652,-58.92549155660064
1031.196,0.969,-0.256,-0.512,-0.056,-0.262,-0.019,-153.434948822922,-59.42767650149545,-151.80508992190337,-58.950360210070734
1031.252,0.953,-0.262,-0.509,-0.041,0.028,-0.042,-152.76354464007204,-59.00651439555862,-151.83481250527353,-58.930309207571796
1031.309,0.955,-0.258,-0.509,0.112,0.043,0.141,-153.1206334363581,-59.1398862756882,-151.88070616004245,-58.919893403015884
1031.365,0.967,-0.259,-0.503,0.059,-0.133,-0.157,-152.75558406745677,-59.66927727852707,-151.90424044131893,-58.95713239991181
1031.421,0.956,-0.255,-0.507,-0.071,-0.178,-0.027,-153.29949805986044,-59.30512364533273,-151.97260782999186,-58.970354229372425
1031.477,0.956,-0.262,-0.494,-0.064,0.18,-0.057,-152.0601140423526,-59.6760288939412,-151.95258910823895,-58.99052447181051
1031.533,0.96,-0.263,-0.508,-0.003,-0.01,0.027,-152.62865019102762,-59.21021825292713,-151.97053347652772,-58.98832045914318
1031.589,0.964,-0.26,-0.5,-0.232,-0.155,-0.134,-152.52556837372288,-59.68919069484707,-151.99344534209843,-59.02759006599488
1031.646,0.953,-0.26,-0.497,0.097,0.119,0.05,-152.38418711046916,-59.52052419683472,-151.98843992513818,-59.03923638968531
1031.702,0.949,-0.262,-0.507,-0.186,-0.033,-0.08,-152.67164895763867,-58.97878031326959,-152.0199422609683,-59.02178806708306
1031.759,0.961,-0.262,-0.503,0.005,0.066,0.095,-152.4861306992901,-59.45255819548598,-152.02744420034796,-59.032926804197004
1031.815,0.951,-0.265,-0.496,0.066,-0.239,0.149,-151.88556009501372,-59.4029791292136,-151.9909247397685,-59.05698478296949
1031.871,0.956,-0.27,-0.504,0.143,1.875,-0.111,-151.82140989004085,-59.11714690007157,-151.94824147030292,-58.950104985147924
1031.927,0.946,-0.26,-0.498,-0.003,0.02,0.34,-152.43146294556178,-59.29584731008289,-151.95824454264695,-58.96009724326866
1031.984,0.952,-0.26,-0.499,0.02,-0.003,0.095,-152.4785898201591,-59.41508007860248,-151.9702875884603,-58.97943572996145
1032.04,0.958,-0.261,-0.514,-0.056,0.013,-0.164,-153.0793550673109,-58.96288477360854,-152.02875537809044,-58.96633047406551
1032.096,0.957,-0.273,-0.501,0.036,0.089,0.027,-151.413583882566,-59.197090499970805,-151.96490953534243,-58.96644390966233
1032.153,0.949,-0.281,-0.501,0.02,-0.201,0.141,-150.71288133215663,-58.813768138979626,-151.85596036120072,-58.95551997758988
1032.209,0.958,-0.264,-0.502,-0.056,-0.14,0.08,-152.26027883643468,-59.37225137656088,-151.86400728844552,-58.98070011013469
1032.266,0.949,-0.262,-0.504,-0.01,-0.148,0.034,-152.53272766139187,-59.097025950127765,-151.8885733879659,-58.98624278269382
1032.322,0.956,-0.26,-0.501,-0.109,-0.209,-0.004,-152.57239924249382,-59.44128142178788,-151.9211441534078,-59.01880900566194
1032.379,0.956,-0.263,-0.508,0.089,0.005,0.187,-152.62865019102762,-59.10491451872734,-151.94610536952163,-59.01534257647834
1032.435,0.968,-0.264,-0.508,-0.094,-0.178,0.164,-152.53977511271094,-59.39869887554473,-151.97460103859632,-59.04245382285587
1032.491,0.957,-0.261,-0.495,0.12,-0.003,-0.042,-152.19854122006586,-59.683540931723854,-151.9674712762514,-59.079150091601555
1032.547,0.956,-0.261,-0.501,0.158,-0.117,0.126,-152.48237518212156,-59.42078417546997,-151.97909436831912,-59.1022940422112
1032.603,0.954,-0.26,-0.5,-0.148,0.272,0.095,-152.52556837372288,-59.42821485295799,-152.00995997651373,-59.10477416496718
1032.66,0.954,-0.259,-0.51,0.013,-0.01,0.218,-153.07657489125808,-59.05402684023594,-152.06953294145492,-59.09640400883443
1032.716,0.967,-0.264,-0.502,0.143,-0.285,-0.157,-152.26027883643468,-59.60658992692417,-152.06390247193278,-59.14135255720369
1032.772,0.963,-0.26,-0.502,-0.01,0.035,0.034,-152.61908305950791,-59.58466330963677,-152.09200203556392,-59.165998908985
1032.828,0.961,-0.26,-0.507,-0.056,0.119,0.218,-152.85031830221683,-59.33617114704271,-152.13776744621038,-59.168210842848566
1032.884,0.954,-0.259,-0.51,0.127,-0.018,0.233,-153.07657489125808,-59.05402684023594,-152.1880962408687,-59.15818174949616
1032.94,0.958,-0.263,-0.502,-0.048,-0.209,-0.088,-152.34975997087932,-59.39283774027095,-152.1955379965317,-59.182097736925655
1032.996,0.959,-0.261,-0.497,-0.056,-0.033,0.019,-152.29374956733488,-59.6568153879616,-152.19933119587535,-59.2139686059442
1033.052,0.955,-0.259,-0.506,0.097,0.058,-0.195,-152.89401339733217,-59.23810301994243,-152.2367519808872,-59.21080188020979
1033.109,0.958,-0.254,-0.511,-0.048,0.02,-0.263,-153.56965652028003,-59.2192648084668,-152.32753513714056,-59.20853919750325
1033.165,0.959,-0.258,-0.501,0.081,-0.01,-0.088,-152.75288842974936,-59.560587547311115,-152.351332361739,-59.231773505391125
1033.221,0.951,-0.268,-0.503,-0.003,-0.064,-0.24,-151.95116701244223,-59.06543608283167,-152.3230773411968,-59.222555282360794
1033.277,0.953,-0.261,-0.5,-0.071,0.005,-0.019,-152.43544106570084,-59.3813164701771,-152.33312216340087,-59.231960462756746
1033.334,0.953,-0.252,-0.497,-0.071,-0.064,-0.126,-153.1130658075233,-59.68437469918478,-152.38982610548746,-59.26574617657864
1033.39,0.959,-0.262,-0.498,0.02,0.043,0.057,-152.25094388478502,-59.59676042770732,-152.3795155194374,-59.28640267540088
1033.446,0.952,-0.26,-0.497,-0.056,-0.064,-0.088,-152.38418711046916,-59.49422242849232,-152.38285063265724,-59.30476318398
1033.502,0.959,-0.266,-0.501,-0.079,0.081,0.218,-152.03446347723525,-59.396226055646494,-152.36287830557188,-59.307906694617806
1033.558,0.959,-0.262,-0.5,0.043,-0.148,-0.095,-152.34546152475534,-59.51812533392197,-152.35879581317442,-59.33142052793733
1033.614,0.953,-0.273,-0.502,-0.003,0.15,0.011,-151.4615601306877,-59.05257363330874,-152.29603201179737,-59.3058798728568
1033.671,0.953,-0.26,-0.514,0.097,-0.041,0.042,-153.16804494837947,-58.85017062823002,-152.34889792028528,-59.277484783572355
1033.727,0.955,-0.26,-0.487,-0.102,0.127,0.095,-151.903092914528,-59.9689904837802,-152.32256275447136,-59.31899934135331
1033.784,0.955,-0.263,-0.497,0.036,-1.987,0.034,-152.11332360271734,-59.51073183294752,-152.30445659670661,-59.43929761220607
1033.84,0.953,-0.263,-0.498,0.089,-0.14,-0.004,-152.1609079922253,-59.41877771657119,-152.28779565255917,-59.4468830254281
1033.896,0.952,-0.259,-0.501,-0.056,-0.087,-0.088,-152.66257035409149,-59.356484338783005,-152.31441501939912,-59.446790999789556
1033.952,0.952,-0.262,-0.509,0.104,-0.163,-0.05,-152.76354464007204,-58.97995506579145,-152.3386253438745,-59.42432043361828
1034.009,0.95,-0.261,-0.5,0.028,-0.049,0.011,-152.43544106570084,-59.30207617219693,-152.34324284355253,-59.41889825674103
1034.065,0.954,-0.257,-0.509,0.135,0.089,-0.034,-153.21026064329752,-59.133419670837156,-152.39604081540946,-59.3946324147383
1034.122,0.955,-0.264,-0.495,0.158,-0.018,0.072,-151.92751306414706,-59.56855190112799,-152.35649830665082,-59.407303927749325
1034.178,0.955,-0.258,-0.508,0.036,0.211,0.042,-153.07516843706014,-59.17932818274631,-152.40502707406108,-59.38044708551492
1034.234,0.953,-0.263,-0.505,-0.125,-0.125,0.042,-152.48985672320333,-59.143328044332925,-152.4193672061464,-59.37002177329435
1034.29,0.959,-0.264,-0.5,-0.086,0.081,0.111,-152.16594605944917,-59.476830369109564,-152.40833053223608,-59.37225779622102
1034.346,0.955,-0.264,-0.494,0.104,0.028,0.118,-151.87937547453814,-59.60791520548394,-152.36772372107188,-59.38643433573694
1034.402,0.955,-0.266,-0.514,0.219,-0.056,0.134,-152.63799556229733,-58.7832427464864,-152.37554387402207,-59.34723068690474
1034.459,0.958,-0.259,-0.504,-0.064,0.188,0.118,-152.80187205149088,-59.39580866751428,-152.40963503421546,-59.33911810857682
1034.515,0.958,-0.259,-0.507,-0.003,0.043,0.103,-152.93986799890754,-59.27765771152457,-152.4485494882944,-59.33124235986752
1034.571,0.958,-0.25,-0.514,0.127,-2.01,-0.08,-154.06257701453984,-59.178353955711124,-152.557044708285,-59.42388150944426
1034.627,0.958,-0.26,-0.502,0.127,0.028,0.042,-152.61908305950791,-59.45428025564709,-152.56108445463872,-59.422504450677565
1034.683,0.953,-0.262,-0.498,0.005,-0.27,0.126,-152.25094388478502,-59.43956023291459,-152.5457731700266,-59.435800552562455
1034.74,0.96,-0.262,-0.505,-0.193,-0.209,0.042,-152.5791792802091,-59.34799535143526,-152.56425975361196,-59.43879997737321
1034.796,0.955,-0.259,-0.5,0.036,-0.102,-0.225,-152.61584336600367,-59.47499809375458,-152.57182499329505,-59.4444782653212
1034.852,0.954,-0.26,-0.513,0.005,0.074,-0.057,-153.12307751998074,-58.916048382948006,-152.6158016474808,-59.401841806024905
1034.908,0.954,-0.264,-0.508,-0.041,-0.049,0.05,-152.53977511271094,-59.031682991338144,-152.61974122609834,-59.375535092400554
1034.964,0.938,-0.26,-0.503,-0.033,0.066,0.095,-152.6656204546129,-58.88273030152107,-152.63154942639375,-59.33396608371527
1035.02,0.948,-0.261,-0.502,0.005,-0.224,-0.157,-152.52916216281136,-59.16993276089162,-152.63116340282423,-59.32933189219918
1035.076,0.956,-0.26,-0.496,-0.025,-0.125,-0.103,-152.336761672182,-59.63869722147769,-152.61879413661205,-59.3520320492644
1035.132,0.957,-0.261,-0.509,-0.079,0.158,0.057,-152.85260364302823,-59.1324965012339,-152.64525872728566,-59.323926289802905
1035.189,0.953,-0.263,-0.505,-0.071,0.035,0.202,-152.48985672320333,-59.143328044332925,-152.64493904675413,-59.30437217939171
1035.245,0.954,-0.278,-0.495,-0.132,0.051,-0.218,-150.6807295119277,-59.24324537231475,-152.5217030295699,-59.29204689994091
1035.301,0.958,-0.259,-0.485,-0.262,-0.094,0.057,-151.89686377878917,-60.147252835731976,-152.494149817707,-59.35076949142609
1035.358,0.957,-0.266,-0.505,0.066,-0.087,-0.294,-152.22275820678058,-59.187377557831425,-152.4726456143348,-59.34019933155469
1035.414,0.954,-0.263,-0.508,-0.064,-0.018,0.042,-152.62865019102762,-59.05201890372504,-152.48709730738722,-59.31701682480848
1035.47,0.952,-0.259,-0.501,-0.117,-0.003,-0.057,-152.66257035409149,-59.356484338783005,-152.50597403780745,-59.31522029667127
1035.526,0.951,-0.256,-0.496,-0.186,-0.079,0.011,-152.7004277886672,-59.59013842473234,-152.5301087010422,-59.3338198152388
1035.582,0.95,-0.251,-0.507,0.059,-0.071,-0.08,-153.6614131752632,-59.225995940778404,-152.60687099620054,-59.32600307186538
1035.638,0.959,-0.266,-0.51,0.02,0.18,-0.21,-152.4548677932286,-59.044993689208006,-152.59894043701505,-59.292868266086415
1035.694,0.939,-0.265,-0.514,-0.086,-0.064,-0.141,-152.72598850946667,-58.372794231475595,-152.61557612937412,-59.2275677429922
1035.75,0.962,-0.258,-0.508,-0.064,0.081,-0.042,-153.07516843706014,-59.363118642330356,-152.65437519349388,-59.22604910597528
1035.806,0.959,-0.262,-0.507,-0.071,0.02,0.057,-152.67164895763867,-59.24337504288509,-152.6637905807024,-59.21981247090292
1035.862,0.958,-0.262,-0.506,-0.102,0.089,-0.21,-152.62548617392648,-59.25632252526275,-152.67098495488463,-59.211362026693536
1035.919,0.947,-0.251,-0.502,0.028,-0.087,-0.103,-153.434948822922,-59.34629273988085,-152.7270439843253,-59.21898804266371
1035.975,0.953,-0.261,-0.499,-0.033,1.883,-0.019,-152.3883591816724,-59.42079544451661,-152.71126216469037,-59.12890268834761
1036.031,0.961,-0.261,-0.503,0.104,0.127,0.019,-152.57580263647642,-59.47295967892054,-152.70173073525586,-59.140843455049456
1036.087,0.957,-0.258,-0.503,-0.277,-0.064,-0.019,-152.84569338560962,-59.42929925883156,-152.7311626558158,-59.15961272594373
1036.143,0.953,-0.26,-0.504,0.12,0.15,-0.073,-152.7120120544845,-59.24393641638296,-152.7288429651136,-59.15366434914547
1036.2,0.963,-0.263,-0.494,-0.148,-0.239,-0.126,-151.96966887497527,-59.836997907352625,-152.68929741626962,-59.209942111745654
1036.256,0.961,-0.255,-0.5,0.097,0.043,-0.034,-152.97841840882296,-59.712987521416835,-152.70794143231004,-59.240234081374744
1036.312,0.955,-0.261,-0.499,0.043,-0.194,-0.218,-152.3883591816724,-59.473377462780576,-152.68774830597266,-59.26518550942842
1036.369,0.955,-0.259,-0.509,0.028,-0.102,-0.134,-153.031148135334,-59.11987169342604,-152.7137480138502,-59.25960643419897
1036.425,0.958,-0.258,-0.507,-0.155,0.089,0.141,-153.0295609213491,-59.297737921706414,-152.74802835879538,-59.25642872682011
1036.482,0.957,-0.261,-0.494,-0.048,-0.262,-0.027,-152.15071090773958,-59.72301350826711,-152.7140299786034,-59.301644789608254
1036.539,0.956,-0.265,-0.499,-0.079,0.02,0.072,-152.02892141757218,-59.41669563503114,-152.674257912499,-59.30842566499941
1036.595,0.956,-0.257,-0.504,-0.018,-0.041,0.034,-152.98202719396082,-59.383749043820906,-152.69880845603063,-59.31588080137346
1036.652,0.96,-0.26,-0.499,0.043,0.035,-0.011,-152.4785898201591,-59.624673570681416,-152.68408646904717,-59.33575360794336
1036.708,0.954,-0.26,-0.498,-0.086,0.005,0.042,-152.43146294556178,-59.50724645842788,-152.67337050974513,-59.34829809829737
1036.764,0.958,-0.263,-0.495,-0.17,1.883,-0.256,-152.01770468790866,-59.6679054874714,-152.63847083956057,-59.27363798995013
1036.82,0.951,-0.264,-0.503,-0.025,1.883,-0.011,-152.30722479706333,-59.148396239115456,-152.61720823339195,-59.16891633746584
1036.876,0.953,-0.267,-0.504,-0.079,0.043,-0.118,-152.08706154272343,-59.10015853267921,-152.58425656475433,-59.16395420759673
1036.932,0.953,-0.259,-0.5,-0.041,-0.201,-0.004,-152.61584336600367,-59.422417718080645,-152.5872586753008,-59.19429985761646
1036.988,0.958,-0.263,-0.503,-0.125,0.066,-0.027,-152.3966047261581,-59.35360125612978,-152.57926574268697,-59.204345974900114
1037.045,0.954,-0.263,-0.5,-0.056,-0.155,0.118,-152.25562983051745,-59.366354390608294,-152.55803784182987,-59.22663051703613
1037.101,0.95,-0.263,-0.5,0.265,0.142,-0.218,-152.25562983051745,-59.26069936653648,-152.52087243905243,-59.22466136957457
1037.157,0.958,-0.265,-0.514,-0.01,0.165,0.072,-152.72598850946667,-58.882949469613,-152.53271197581844,-59.1954677844124
1037.214,0.958,-0.265,-0.499,0.219,-0.087,0.065,-152.02892141757218,-59.4691170398964,-152.48352167024325,-59.22160198881787
1037.27,0.953,-0.263,-0.509,-0.254,-0.033,0.21,-152.6746279197141,-58.98626888476559,-152.5065285458143,-59.20996370625417
1037.326,0.958,-0.261,-0.492,-0.003,-0.064,-0.034,-152.05459474947756,-59.828008588317026,-152.4721455758695,-59.25874386739008
1037.382,0.938,-0.262,-0.499,-0.064,-0.224,-0.172,-152.29827694532324,-59.00032426496779,-152.4593388231232,-59.2562326322128
1037.438,0.956,-0.26,-0.502,-0.041,-0.033,-0.057,-152.61908305950791,-59.40184387190384,-152.46814566401832,-59.27126171294538
1037.494,0.953,-0.259,-0.501,0.097,0.028,0.095,-152.66257035409149,-59.38285592461305,-152.47250034512462,-59.28103746596894
1037.55,0.954,-0.259,-0.501,-0.117,-0.102,0.065,-152.66257035409149,-59.40918655344064,-152.48812306464836,-59.298960866771544
1037.606,0.958,-0.258,-0.501,-0.109,-0.102,0.08,-152.75288842974936,-59.53447076822963,-152.50889577985265,-59.32457649826765
1037.662,0.957,-0.263,-0.503,0.028,0.188,-0.05,-152.3966047261581,-59.32735273470995,-152.49690747001083,-59.319394882530425
1037.718,0.961,-0.258,-0.501,-0.148,-2.01,-0.034,-152.75288842974936,-59.61269982267288,-152.51941490615928,-59.44893291092302
1037.774,0.956,-0.262,-0.498,0.059,0.02,-0.172,-152.25094388478502,-59.518343515527505,-152.495277418493,-59.45750830578717
1037.83,0.939,-0.261,-0.495,-0.025,1.852,0.072,-152.19854122006586,-59.20728682736518,-152.47301924800638,-59.34857612417117
1037.886,0.952,-0.267,-0.497,0.043,-0.049,0.004,-151.7542701757922,-59.34795562733659,-152.41735322073185,-59.355712772976574
1037.943,0.955,-0.263,-0.505,0.097,0.081,-0.011,-152.48985672320333,-59.19618852350594,-152.41208793464466,-59.345035113683295
1038.0,0.957,-0.262,-0.508,-0.033,0.127,0.141,-152.71766824336646,-59.15155483537706,-152.43009162075523,-59.32921174552016
1038.056,0.957,-0.263,-0.503,-0.117,1.89,0.08,-152.3966047261581,-59.32735273470995,-152.42961207994276,-59.23447731814776
1038.112,0.957,-0.261,-0.496,0.059,0.035,-0.05,-152.24622055727315,-59.64408280206162,-152.4094796186663,-59.26518439777461
1038.169,0.95,-0.261,-0.499,-0.155,0.035,0.294,-152.3883591816724,-59.34161501087364,-152.41146313948718,-59.27365819360344
1038.225,0.962,-0.258,-0.499,0.127,-0.148,-0.073,-152.6594959737607,-59.717571022748686,-152.41734107443963,-59.31729409882842
1038.281,0.954,-0.264,-0.495,-0.224,-0.216,0.057,-151.92751306414706,-59.542329706591836,-152.39079109431276,-59.35015033219983
1038.338,0.955,-0.265,-0.498,-0.071,-2.01,0.095,-151.98128385290926,-59.429680357361995,-152.3607659586538,-59.46879421254614
1038.395,0.958,-0.26,-0.506,-0.018,0.135,0.057,-152.8043603594678,-59.29684408627112,-152.3864079327397,-59.4560913056697
1038.451,0.956,-0.278,-0.501,0.02,-1.987,0.042,-150.97453428433033,-59.06438473945429,-152.28202577276247,-59.538334734992695
1038.508,0.962,-0.263,-0.503,-0.079,-0.018,-0.149,-152.3966047261581,-59.45819088162507,-152.2860018241063,-59.5386996350147
1038.564,0.953,-0.259,-0.499,-0.018,-0.171,-0.111,-152.5689687791425,-59.46199506301839,-152.29882779854674,-59.54699512704274
1038.62,0.949,-0.264,-0.506,-0.148,-0.117,-0.042,-152.4471884232822,-58.97726534082293,-152.30965779359,-59.51800191942947
1038.676,0.965,-0.262,-0.497,0.089,0.135,0.095,-152.2034617060853,-59.791723389349585,-152.29074299314763,-59.533329727908495
1038.733,0.963,-0.262,-0.498,-0.14,-0.01,0.149,-152.25094388478502,-59.70075030147319,-152.2881842260425,-59.54948504112903
1038.789,0.952,-0.263,-0.499,-0.018,0.203,0.141,-152.20834318954937,-59.35300914749648,-152.27639848307572,-59.52948559947049
1038.846,0.959,-0.261,-0.495,-0.018,-0.216,-0.118,-152.19854122006586,-59.73563640592457,-152.26448164503998,-59.55920874691436
1038.902,0.968,-0.259,-0.498,-0.178,0.15,-0.08,-152.5219459561066,-59.8913903356139,-152.28420020363137,-59.57874648975504
1038.958,0.955,-0.257,-0.498,0.104,0.119,0.011,-152.70335851907453,-59.59512877422687,-152.30099031790826,-59.57862263315189
1039.014,0.956,-0.27,-0.51,-0.224,0.051,0.134,-152.10272896905238,-58.88394389509378,-152.2928330263443,-59.53264836242546
1039.07,0.957,-0.262,-0.515,0.135,-0.003,-0.065,-153.0358360712702,-58.8774129557429,-152.3309609175896,-59.49080633789156
1039.126,0.954,-0.266,-0.504,0.089,0.211,0.004,-152.17590361574673,-59.147316784405334,-152.31064651533427,-59.45812306361508
1039.182,0.961,-0.262,-0.506,-0.064,-0.003,0.004,-152.62548617392648,-59.33497114721593,-152.33064189905122,-59.45121077758987
1039.239,0.951,-0.263,-0.498,-0.003,0.066,0.027,-152.1609079922253,-59.36602981879853,-152.31437165278288,-59.44303725339403
1039.296,0.941,-0.267,-0.497,0.059,-2.003,0.141,-151.7542701757922,-59.05509344117174,-152.2673000364976,-59.523351154168985
1039.352,0.955,-0.263,-0.502,0.097,-0.194,0.004,-152.34975997087932,-59.31402933836489,-152.26194966700987,-59.51891844513023
1039.408,0.958,-0.254,-0.496,-0.109,0.096,0.095,-152.88316062228444,-59.814089392772466,-152.3049755070684,-59.533993767149504
1039.464,0.958,-0.265,-0.489,0.135,-0.194,-0.057,-151.5457488450852,-59.86171183936488,-152.24063207906863,-59.5670565785852
1039.52,0.968,-0.264,-0.51,0.028,0.096,-0.233,-152.63178957111177,-59.32090786559916,-152.26025041636115,-59.545790706855854
1039.576,0.954,-0.262,-0.507,-0.041,-0.026,-0.004,-152.67164895763867,-59.11158832024547,-152.2856859625678,-59.51732935330125
1039.632,0.956,-0.264,-0.505,0.051,-0.262,0.134,-152.4006789730257,-59.20209671470215,-152.28659735491533,-59.508534390430356
1039.689,0.957,-0.26,-0.506,0.028,-0.01,0.134,-152.8043603594678,-59.270567160645435,-152.3168562219923,-59.49126355407232
1039.745,0.954,-0.261,-0.498,-0.102,0.096,-0.271,-152.34112889497263,-59.48658101068607,-152.32077840406495,-59.48420317247675
1039.802,0.954,-0.261,-0.493,-0.132,0.188,0.202,-152.10272896905238,-59.68417393899514,-152.30953044222522,-59.48637806412881
1039.858,0.958,-0.263,-0.509,0.02,0.005,0.202,-152.6746279197141,-59.11850316895067,-152.3303708040826,-59.45926084481747
1039.914,0.948,-0.262,-0.511,-0.163,0.066,0.072,-152.85487118706664,-58.79458429932142,-152.3725779877574,-59.40759528806326
1039.971,0.957,-0.264,-0.508,0.097,0.035,-0.088,-152.53977511271094,-59.110995466177414,-152.37737222059545,-59.381647851829214
1040.027,0.957,-0.261,-0.506,0.089,0.158,-0.073,-152.7148512551617,-59.25032267796548,-152.39489635894918,-59.36028018078008
1040.083,0.96,-0.262,-0.499,-0.056,-0.117,-0.004,-152.29827694532324,-59.58351346137865,-152.3905125732532,-59.37763948374404
1040.139,0.955,-0.263,-0.503,0.081,-0.094,0.057,-152.3966047261581,-59.27473377318297,-152.38592241357077,-59.37159604171119
1040.196,0.955,-0.257,-0.508,-0.064,-0.14,-0.027,-153.16490001580135,-59.19933717421125,-152.44269629135593,-59.3629647790667
1040.252,0.954,-0.262,-0.497,0.081,-0.102,-0.042,-152.2034617060853,-59.50530177446352,-152.42268279574222,-59.37380153628766
1040.309,0.959,-0.262,-0.498,-0.125,1.883,-0.134,-152.25094388478502,-59.59676042770732,-152.4177200795822,-59.28529456174813
1040.366,0.954,-0.264,-0.492,-0.018,0.028,-0.088,-151.78264414527072,-59.660522029854604,-152.37443990290143,-59.30648454610195
1040.422,0.963,-0.266,-0.501,-0.048,-0.094,0.103,-152.03446347723525,-59.500621422447416,-152.35194589911805,-59.32229124447457
1040.479,0.949,-0.264,-0.501,-0.163,-0.285,-0.164,-152.2131861322918,-59.17400957907152,-152.34884741807042,-59.324836243090054
1040.535,0.952,-0.257,-0.508,0.135,0.005,-0.019,-153.16490001580135,-59.119989790552076,-152.39626772759556,-59.307778941245296
1040.591,0.959,-0.265,-0.495,-0.048,0.051,-0.149,-151.8374726256764,-59.65206001388266,-152.3592564696668,-59.32611687874771
1040.648,0.957,-0.256,-0.505,0.043,-0.003,0.248,-153.118150742791,-59.390559910391275,-152.4079849580853,-59.32849053959942
1040.705,0.956,-0.266,-0.487,-0.132,0.188,0.034,-151.35657857756007,-59.86699099741885,-152.34151040865794,-59.35390786621455
1040.761,0.959,-0.259,-0.507,-0.079,-0.056,-0.126,-152.93986799890754,-59.303903691982015,-152.38488435427706,-59.352390562548536
1040.817,0.954,-0.264,-0.509,-0.018,-0.079,-0.126,-152.5858535685166,-58.99250952053381,-152.39863517683855,-59.33039855380978
1040.873,0.948,-0.268,-0.502,0.036,-0.033,-0.157,-151.90382243927712,-59.02474053905599,-152.36157872744502,-59.30904281479272
1040.93,0.956,-0.26,-0.489,-0.01,-0.003,0.004,-152.00054004044523,-59.915695826101285,-152.3351673119567,-59.348950050384
1040.986,0.938,-0.265,-0.501,-0.247,0.234,0.08,-152.12375108497315,-58.858356275978146,-152.33080674092736,-59.30143658087234
1041.042,0.956,-0.264,-0.507,0.104,0.104,0.118,-152.49355359990085,-59.12374920071715,-152.3337287334868,-59.28149118920187
1041.098,0.958,-0.262,-0.499,0.028,0.058,0.072,-152.29827694532324,-59.53131715978676,-152.32718105452375,-59.293320073203276
1041.155,0.953,-0.261,-0.504,0.036,0.119,-0.027,-152.6222972286683,-59.2235545767187,-152.34307026811499,-59.28012955656849
1041.211,0.956,-0.263,-0.497,0.059,0.074,0.08,-152.11332360271734,-59.5369426593461,-152.32194955945738,-59.2920196398
1041.267,0.954,-0.26,-0.499,-0.033,-0.018,-0.141,-152.4785898201591,-59.46772303585477,-152.33202785796033,-59.30360105832575
1041.324,0.956,-0.264,-0.5,0.066,-2.003,-0.027,-152.16594605944917,-59.39823117462653,-152.3147271019915,-59.415183653141106
1041.38,0.954,-0.265,-0.504,0.059,-0.026,0.103,-152.26489133756212,-59.16795108252164,-152.30565080153795,-59.398099231539575
1041.436,0.956,-0.259,-0.489,-0.148,0.242,-0.027,-152.09196313311872,-59.93673499957882,-152.29588061968172,-59.42117852689894
1041.492,0.958,-0.266,-0.504,0.112,-0.003,-0.011,-152.17590361574673,-59.252756416855235,-152.27862751418647,-59.40901900992704
1041.548,0.954,-0.264,-0.501,-0.079,0.074,0.134,-152.2131861322918,-59.30633205276203,-152.27489059319296,-59.39707085889917
1041.604,0.953,-0.26,-0.507,0.036,0.051,-0.042,-152.85031830221683,-59.12563472762416,-152.30953210088236,-59.37440292878939
1041.66,0.955,-0.26,-0.501,0.051,-0.003,-0.034,-152.57239924249382,-59.415022119115605,-152.32287936357625,-59.37566789418046
1041.716,0.966,-0.264,-0.503,-0.132,-0.056,0.164,-152.30722479706333,-59.541682090088074,-152.32697965157445,-59.3884849351579
1041.772,0.938,-0.261,-0.5,-0.125,-0.125,-0.21,-152.43544106570084,-58.98138291259756,-152.33928448248338,-59.365464460810045
1041.828,0.96,-0.261,-0.504,-0.048,-0.003,-0.164,-152.6222972286683,-59.40757406385786,-152.35989808396045,-59.36640636501386
1041.885,0.954,-0.263,-0.504,-0.003,-2.01,0.164,-152.44330343688233,-59.20906322474628,-152.36489135993236,-59.460011753678145
1041.941,0.966,-0.259,-0.487,0.02,0.127,0.156,-151.99472574256677,-60.273516106584765,-152.33738178202842,-59.50727248905781
1041.997,0.954,-0.262,-0.503,-0.277,0.081,-0.088,-152.4861306992901,-59.268889321904844,-152.36061462510182,-59.485602862459
1042.054,0.952,-0.263,-0.501,-0.033,0.02,0.141,-152.30276854779072,-59.274223835031954,-152.35707470597146,-59.468448799385655
1042.11,0.955,-0.266,-0.507,-0.132,0.096,-0.027,-152.31603289235483,-59.056426767632004,-152.3597331769669,-59.43301486080953
1042.166,0.966,-0.262,-0.505,0.013,-0.133,0.08,-152.5791792802091,-59.504330266084565,-152.37282716572363,-59.44224860773853
1042.223,0.956,-0.26,-0.495,-0.003,0.081,-0.065,-152.2891859847469,-59.67822515204869,-152.36614631076662,-59.45179748485022
1042.279,0.941,-0.257,-0.503,-0.094,-0.117,-0.034,-152.93594831650006,-59.02495393766231,-152.4094549078519,-59.42622857860022
1042.335,0.959,-0.26,-0.501,0.005,-0.01,0.027,-152.57239924249382,-59.5198154416166,-152.42050129008527,-59.430350945822774
1042.392,0.967,-0.261,-0.504,0.013,0.028,0.118,-152.6222972286683,-59.589615709957805,-152.43417291556582,-59.43718962531713
1042.448,0.958,-0.266,-0.509,0.135,-0.102,-0.05,-152.4087323048116,-59.05760426253386,-152.42611399676585,-59.41376209866281
1042.504,0.952,-0.257,-0.498,-0.132,0.18,0.095,-152.70335851907453,-59.51638014571456,-152.45295937830724,-59.40835906907038
1042.561,0.952,-0.265,-0.504,0.15,0.135,-0.011,-152.26489133756212,-59.11500698951137,-152.43320944499064,-59.37783527858336
1042.617,0.955,-0.279,-0.5,-0.293,0.043,-0.088,-150.8384827807957,-59.05503933995614,-152.33851130556647,-59.349659725101695
1042.674,0.954,-0.26,-0.493,-0.071,0.135,0.103,-152.19358126224998,-59.705087937004016,-152.32970683360477,-59.363002717181445
1042.73,0.949,-0.261,-0.494,0.188,0.081,-0.24,-152.15071090773958,-59.513161653979324,-152.30471721526504,-59.36583395935013
1042.786,0.962,-0.26,-0.496,-0.338,0.135,0.156,-152.336761672182,-59.79479884074525,-152.32146890758827,-59.385556001994296
1042.842,0.953,-0.262,-0.507,0.104,0.226,0.118,-152.67164895763867,-59.085108755071424,-152.33733004387136,-59.35074596310336
1042.898,0.952,-0.265,-0.5,-0.041,0.188,-0.195,-152.07641028486162,-59.27206253418738,-152.3190283074818,-59.33273870119533
1042.954,0.958,-0.261,-0.502,-0.178,0.043,-0.195,-152.52916216281136,-59.43385240843919,-152.34004694140506,-59.33464093577343
1043.011,0.955,-0.26,-0.497,0.036,-0.026,0.034,-152.38418711046916,-59.5730049246486,-152.33873145534605,-59.34988270406347
1043.067,0.956,-0.261,-0.507,-0.056,1.867,0.004,-152.76091192493752,-59.18468418466963,-152.3686560805058,-59.238952804204516
1043.124,0.961,-0.267,-0.503,-0.003,0.051,0.286,-152.03996202737676,-59.349764321070744,-152.34446935033338,-59.24163005525529
1043.18,0.954,-0.269,-0.503,0.043,0.089,0.011,-151.86251839524866,-59.12410970756973,-152.3065866141907,-59.22677847471519
1043.236,0.967,-0.265,-0.506,-0.003,0.081,0.08,-152.3582559175115,-59.43028106932857,-152.3072117917919,-59.23442873428659
1043.293,0.952,-0.267,-0.49,-0.094,0.028,-0.042,-151.41412376195117,-59.6229597650713,-152.24701449709534,-59.25809890663752
1043.354,0.954,-0.262,-0.506,-0.025,0.219,-0.05,-152.62548617392648,-59.150889997497316,-152.2696136648018,-59.23705813671922
1043.41,0.951,-0.258,-0.503,0.036,0.043,0.095,-152.84569338560962,-59.2712597353111,-152.30393484599108,-59.23598996503884
1043.466,0.957,-0.259,-0.508,-0.025,0.02,-0.065,-152.98557937421407,-59.211999936391884,-152.3499818116334,-59.232133014363455
1043.522,0.954,-0.259,-0.494,-0.125,-0.071,-0.202,-152.3323594404728,-59.68630025868225,-152.35382664728982,-59.26633751679671
1043.578,0.953,-0.268,-0.497,0.226,0.104,0.126,-151.66488188983885,-59.353236723273945,-152.29252766511638,-59.266729576365165
1043.634,0.943,-0.268,-0.507,0.013,-0.155,-0.172,-152.1390874499477,-58.694610052688965,-152.27827570963646,-59.234878464586494
1043.69,0.948,-0.259,-0.507,-0.025,-0.01,-0.202,-152.93986799890754,-59.01295537504032,-152.32246398417038,-59.218684649866816
1043.746,0.955,-0.264,-0.502,0.181,-2.003,-0.042,-152.26027883643468,-59.29341195788524,-152.30688551865623,-59.3265303934002
1043.802,0.957,-0.266,-0.503,-0.033,0.104,-0.027,-152.1289033754148,-59.26555230162482,-152.2942989565576,-59.31507938849214
1043.859,0.959,-0.251,-0.503,0.165,-0.102,-0.195,-153.48053018125594,-59.62197435624847,-152.36580925255765,-59.339922702261006
1043.915,0.952,-0.252,-0.501,0.013,-0.056,0.065,-153.29787784156736,-59.4983647807626,-152.43018098364644,-59.35259350600224
1043.971,0.958,-0.25,-0.492,0.081,0.119,0.103,-153.06350650955122,-60.05513071421543,-152.47212665394375,-59.394310038431776
1044.028,0.954,-0.259,-0.504,-0.186,-0.026,0.004,-152.80187205149088,-59.29065531956098,-152.50843193624155,-59.389000702670366
1044.084,0.956,-0.26,-0.501,-0.018,-0.094,0.248,-152.57239924249382,-59.44128142178788,-152.51789924701106,-59.397835274102185
1044.14,0.957,-0.259,-0.501,-0.117,0.196,-0.126,-152.66257035409149,-59.48793353938701,-152.5382566127528,-59.39428420433585
1044.196,0.954,-0.253,-0.5,-0.033,0.005,0.134,-153.16058964530626,-59.5706731079248,-152.58771351835634,-59.40688904153392
1044.252,0.956,-0.262,-0.502,0.02,-0.11,-0.088,-152.43938777261386,-59.36089388244108,-152.58211198118454,-59.41039211120621
1044.308,0.955,-0.26,-0.494,-0.155,-0.285,0.057,-152.24145939893998,-59.69164932755264,-152.57195700606505,-59.44563817547103
1044.364,0.956,-0.257,-0.494,-0.14,-0.102,0.019,-152.51461385607297,-59.779971409780266,-152.57996882765352,-59.47557333309111
1044.42,0.955,-0.278,-0.497,-0.018,-0.018,0.126,-150.77926499147762,-59.19234098688703,-152.46045187078187,-59.458926745382776
1044.476,0.956,-0.254,-0.511,-0.148,-0.094,-0.103,-153.56965652028003,-59.16659303982083,-152.54597475959403,-59.445023395234145
1044.532,0.958,-0.259,-0.501,0.234,-0.049,0.233,-152.66257035409149,-59.514101180722065,-152.54496600706184,-59.453240169360164
1044.589,0.953,-0.26,-0.508,-0.155,-0.216,0.149,-152.89613292503924,-59.086233135885244,-152.58099363033884,-59.44022938691744
1044.645,0.957,-0.262,-0.502,0.097,-0.056,0.065,-152.43938777261386,-59.387152995900145,-152.5701615607593,-59.43968193936947
1044.702,0.955,-0.26,-0.51,-0.132,-0.033,0.057,-152.98733465206146,-59.06047409704072,-152.6099879380401,-59.41518261292214
1044.758,0.952,-0.263,-0.504,-0.201,0.02,0.118,-152.44330343688233,-59.156160088132374,-152.61348392004513,-59.395460431168814
1044.814,0.959,-0.259,-0.503,0.005,0.005,-0.027,-152.75558406745677,-59.46139088907235,-152.62731794252696,-59.398563890998005
1044.871,0.956,-0.263,-0.503,-0.071,-0.171,0.042,-152.3966047261581,-59.3010636014711,-152.61963477182476,-59.39976037856316
1044.927,0.948,-0.261,-0.503,0.242,0.043,-0.095,-152.57580263647642,-59.13040109986909,-152.6079926995648,-59.37750617668835
1044.984,0.958,-0.264,-0.511,-0.064,-0.102,0.126,-152.67758372129532,-59.02010988764665,-152.62024014095144,-59.35618158606815
1045.04,0.958,-0.267,-0.504,-0.178,-0.194,0.195,-152.08706154272343,-59.23211136918756,-152.59651532749135,-59.35507428997632
1045.096,0.957,-0.26,-0.501,0.074,-0.201,0.149,-152.57239924249382,-59.46750002071908,-152.59392207069948,-59.37049869543812
1045.152,0.952,-0.267,-0.506,0.097,0.066,0.011,-152.1808240313397,-58.99540449384723,-152.56305747383223,-59.33835105971984
1045.209,0.958,-0.261,-0.5,-0.102,-0.026,-0.05,-152.43544106570084,-59.512565614020865,-152.56167214782283,-59.348375311277636
1045.265,0.955,-0.261,-0.506,-0.094,-0.033,-0.149,-152.7148512551617,-59.19762672164701,-152.57898063379764,-59.33657195756711
1045.321,0.95,-0.25,-0.497,-0.018,-0.171,0.011,-153.29677598905906,-59.64607178493674,-152.631861459307,-59.363636778170964
1045.378,0.951,-0.265,-0.51,0.036,-0.125,-0.042,-152.54325771540013,-58.85323485874672,-152.62739273222837,-59.331994139495066
1045.434,0.948,-0.262,-0.489,-0.132,0.142,0.256,-151.81815851224877,-59.66400403901445,-152.58136407550617,-59.343887937912214
1045.491,0.957,-0.264,-0.513,-0.094,-0.209,0.149,-152.76874885273887,-58.915575703442485,-152.60107520875363,-59.32203718065051
1045.547,0.946,-0.261,-0.504,0.02,-0.041,-0.095,-152.6222972286683,-59.037528698310375,-152.60353992280872,-59.300404472020034
1045.603,0.957,-0.26,-0.509,-0.079,0.013,-0.164,-152.94180483899322,-59.15259711878781,-152.63324605216943,-59.284885654572335
1045.66,0.952,-0.259,-0.507,-0.01,-0.041,0.118,-152.93986799890754,-59.119327925784354,-152.65791790756901,-59.27059488746007
1045.716,0.952,-0.26,-0.499,0.051,-0.148,0.072,-152.4785898201591,-59.41508007860248,-152.64617226610272,-59.283160323357805
1045.772,0.955,-0.264,-0.5,0.295,0.005,0.156,-152.16594605944917,-59.371950151841546,-152.60042597889316,-59.284170439096364
1045.828,0.962,-0.261,-0.504,0.181,-0.033,0.034,-152.6222972286683,-59.45978654601975,-152.5945617926986,-59.293387388942406
1045.885,0.956,-0.261,-0.497,-0.163,-0.056,0.103,-152.29374956733488,-59.57849027139372,-152.58442947547925,-59.31177279340232
1045.941,0.953,-0.264,-0.5,-0.071,0.234,0.065,-152.16594605944917,-59.319265667503565,-152.56049556348347,-59.296355255722084
1045.997,0.968,-0.257,-0.496,0.204,-0.194,0.034,-152.60928618015072,-60.010978454689074,-152.5538438193707,-59.35243776786814
1046.053,0.964,-0.26,-0.501,0.028,-0.178,0.118,-152.57239924249382,-59.64989750790081,-152.55438421456765,-59.380147222625574
1046.11,0.967,-0.261,-0.5,-0.079,0.104,0.004,-152.43544106570084,-59.74626714589061,-152.55106634896066,-59.39842756128046
1046.166,0.958,-0.26,-0.5,-0.254,-0.117,0.042,-152.52556837372288,-59.53309099053552,-152.56302254676297,-59.41302282388049
1046.222,0.956,-0.262,-0.508,0.059,0.188,-0.073,-152.71766824336646,-59.125178115790625,-152.57110453102055,-59.38262879781595
1046.279,0.957,-0.262,-0.489,-0.086,-0.026,-0.157,-151.81815851224877,-59.899452402592914,-152.5240478752456,-59.418764341795956
1046.335,0.958,-0.259,-0.498,-0.071,-0.262,0.065,-152.5219459561066,-59.63253211476451,-152.5267689724481,-59.44717846306377
1046.391,0.957,-0.261,-0.501,-0.155,-0.155,0.187,-152.48237518212156,-59.4470131244178,-152.53091745888904,-59.45555598998666
1046.447,0.958,-0.263,-0.499,-0.102,0.005,0.027,-152.20834318954937,-59.51063651436548,-152.51287157193937,-59.45941534477436
1046.503,0.955,-0.26,-0.511,0.043,-0.186,-0.08,-153.03272296916714,-59.021160610700186,-152.54510887833797,-59.43907731072898
1046.559,0.961,-0.259,-0.501,0.043,-0.071,-0.111,-152.66257035409149,-59.592361211456776,-152.5504787067377,-59.45290006493748
1046.615,0.948,-0.259,-0.504,-0.155,0.035,0.027,-152.80187205149088,-59.131697654355975,-152.57571010131662,-59.428569242645274
1046.672,0.951,-0.262,-0.498,0.013,-0.148,-0.004,-152.25094388478502,-59.3868333832694,-152.55266428155113,-59.4326348587307
1046.728,0.951,-0.261,-0.498,0.074,-0.155,-0.118,-152.34112889497263,-59.40758375366208,-152.533650439125,-59.43800136118599
1046.784,0.954,-0.257,-0.511,-0.17,0.142,-0.347,-153.3005570924194,-59.05445162729709,-152.59487126606876,-59.40292996619831
1046.84,0.954,-0.266,-0.499,-0.117,-0.041,-0.149,-151.9394335423924,-59.34323099083526,-152.55614040477428,-59.39911116804848
1046.896,0.959,-0.26,-0.504,0.02,-0.117,0.057,-152.7120120544845,-59.40172796678433,-152.5652223327982,-59.40345508510081
1046.952,0.958,-0.26,-0.504,-0.14,0.135,0.111,-152.7120120544845,-59.37553097789164,-152.58233539439658,-59.39254320058195
1047.008,0.96,-0.26,-0.504,-0.033,-1.98,0.088,-152.7120120544845,-59.427884508444144,-152.59297045186045,-59.496206055565715
1047.064,0.958,-0.262,-0.501,-0.064,0.066,0.225,-152.39249825695174,-59.45267177479015,-152.58258299109391,-59.487618718728015
1047.12,0.958,-0.26,-0.489,-0.086,-0.003,0.065,-152.00054004044523,-59.967605808969104,-152.54646036332517,-59.51885780737119
1047.176,0.955,-0.261,-0.504,0.059,0.02,0.072,-152.6222972286683,-59.276335049786304,-152.54719592796715,-59.499787260760606
1047.232,0.954,-0.26,-0.499,-0.125,0.066,0.004,-152.4785898201591,-59.46772303585477,-152.54767210040566,-59.49241814964007
1047.288,0.956,-0.26,-0.507,-0.041,-0.239,0.004,-152.85031830221683,-59.204890631539456,-152.56935478088096,-59.483180667420356
1047.345,0.957,-0.266,-0.503,-0.209,0.089,-0.004,-152.1289033754148,-59.26555230162482,-152.54904711825967,-59.4609368093215
1047.402,0.957,-0.261,-0.509,0.013,0.089,0.057,-152.85260364302823,-59.1324965012339,-152.56766995250538,-59.43053956299078
1047.458,0.958,-0.262,-0.508,-0.178,-0.064,0.088,-152.71766824336646,-59.17789095627771,-152.5862513968912,-59.412856404203175
1047.515,0.955,-0.261,-0.499,-0.048,-0.079,0.027,-152.3883591816724,-59.473377462780576,-152.57420630132773,-59.41718908012955
1047.571,0.955,-0.263,-0.5,-0.025,0.013,-0.034,-152.25562983051745,-59.39266576066574,-152.55213785455354,-59.41093911995801
1047.627,0.959,-0.259,-0.494,0.104,0.051,0.019,-152.3323594404728,-59.81663560970914,-152.5295591966407,-59.43255655751631
1047.683,0.957,-0.262,-0.502,-0.018,-0.117,0.004,-152.43938777261386,-59.387152995900145,-152.52190584754504,-59.43244354943492
1047.74,0.958,-0.258,-0.5,0.066,0.196,-0.073,-152.70626595652075,-59.573981218096854,-152.52866472612752,-59.42867401976764
1047.796,0.958,-0.264,-0.498,-0.064,0.043,0.332,-152.07102129131908,-59.52914940278603,-152.4980794217847,-59.43058140455163
1047.852,0.954,-0.257,-0.499,-0.071,-0.163,-0.111,-152.75017131591287,-59.529249217584514,-152.51622681478122,-59.44331435739399
1047.909,0.953,-0.261,-0.503,-0.071,-0.11,0.019,-152.57580263647642,-59.262971713668925,-152.5215433279548,-59.434140551642344
1047.965,0.956,-0.26,-0.504,-0.14,-0.071,-0.004,-152.7120120544845,-59.32301532656886,-152.5396519741485,-59.42731108561804
1048.021,0.96,-0.262,-0.504,0.104,0.096,0.034,-152.53272766139187,-59.38721071271907,-152.53170848276287,-59.416485680161514
1048.077,0.958,-0.257,-0.501,-0.201,0.142,0.141,-152.84335337909627,-59.55478653227989,-152.56179007202923,-59.41559148290243
1048.133,0.95,-0.263,-0.498,0.104,-0.133,0.103,-152.1609079922253,-59.33959421967076,-152.52711519692068,-59.41445183618762
1048.19,0.95,-0.261,-0.498,0.051,-0.049,0.172,-152.34112889497263,-59.381169185829506,-152.50921440566893,-59.411725764020765
1048.246,0.955,-0.259,-0.487,0.066,-0.003,-0.08,-151.99472574256677,-59.99014185719668,-152.46742387847152,-59.44904737296851
1048.302,0.938,-0.259,-0.496,-0.163,-0.071,0.011,-152.42745303569362,-59.18240473180048,-152.4694904175535,-59.43239934326197
1048.358,0.95,-0.26,-0.496,-0.064,0.081,0.111,-152.336761672182,-59.48112992424455,-152.45986402100328,-59.42918205622117
1048.414,0.967,-0.269,-0.51,-0.079,0.005,0.065,-152.19055039984585,-59.19359080042141,-152.44126601648372,-59.41030001586254
1048.47,0.95,-0.263,-0.497,-0.048,-0.01,-0.004,-152.11332360271734,-59.379064123490544,-152.41643157461405,-59.40590723420474
1048.526,0.953,-0.258,-0.503,0.181,0.066,-0.004,-152.84569338560962,-59.324103165652694,-152.43154178239416,-59.39398556630311
1048.582,0.953,-0.26,-0.5,-0.018,-0.117,0.118,-152.52556837372288,-59.401893843947,-152.43467590059385,-59.39767130750807
1048.639,0.958,-0.26,-0.505,0.028,0.196,0.08,-152.75825848264267,-59.336179676258865,-152.45146409005005,-59.38000113798321
1048.695,0.954,-0.258,-0.497,-0.003,0.196,0.057,-152.5655109222079,-59.588053472423496,-152.45609371104393,-59.38118460042695
1048.752,0.952,-0.265,-0.5,0.036,0.013,0.019,-152.07641028486162,-59.27206253418738,-152.42453786585034,-59.370276139265705
1048.808,0.956,-0.261,-0.494,-0.025,-0.003,-0.004,-152.15071090773958,-59.69692512082068,-152.4028411209051,-59.390319391829514
1048.864,0.954,-0.265,-0.5,0.196,-0.163,0.141,-152.07641028486162,-59.32484973680104,-152.36542026697663,-59.392139498648525
1048.92,0.957,-0.264,-0.506,0.265,0.013,-0.057,-152.4471884232822,-59.189273261638185,-152.35211211850654,-59.37509971375879
1048.976,0.946,-0.267,-0.499,-0.209,-0.018,-0.027,-151.8500944298715,-59.11015177444775,-152.32318859459303,-59.35495701440212
1049.033,0.951,-0.251,-0.509,-0.247,0.035,-0.095,-153.75099798663143,-59.17276291683775,-152.42937985885064,-59.33715213217646
1049.089,0.957,-0.261,-0.506,-0.01,-0.056,-0.111,-152.7148512551617,-59.25032267796548,-152.44665043781444,-59.33044280093135
1049.145,0.953,-0.26,-0.507,-0.155,0.119,-0.271,-152.85031830221683,-59.12563472762416,-152.4802748078253,-59.306244898690544
1049.201,0.952,-0.264,-0.497,-0.125,0.127,-0.065,-152.0233353300108,-59.41095853464598,-152.45340023765797,-59.302722064969714
1049.257,0.956,-0.261,-0.5,-0.025,-0.01,-0.011,-152.43544106570084,-59.460188154827556,-152.450837977146,-59.3102384210831
1049.313,0.963,-0.252,-0.493,0.165,0.028,0.05,-152.92587209467982,-60.10345526692255,-152.47255159339386,-59.36022260032444
1049.37,0.959,-0.258,-0.505,-0.079,0.028,0.027,-152.9379158852027,-59.4027817331139,-152.50739071271096,-59.35970460490651
1049.426,0.957,-0.261,-0.498,-0.025,-0.01,0.088,-152.34112889497263,-59.565210373619706,-152.49645528554322,-59.37263823201453
1049.482,0.967,-0.257,-0.486,-0.086,-0.026,0.08,-152.12981917011317,-60.38048758909274,-152.47444573789016,-59.44253327670053
1049.538,0.959,-0.26,-0.496,-0.148,0.15,0.034,-152.336761672182,-59.71693010558463,-152.4708005208597,-59.45441111355195
1049.594,0.954,-0.264,-0.509,0.143,0.119,0.05,-152.5858535685166,-58.99250952053381,-152.46923387969824,-59.41738670298916
1049.65,0.958,-0.261,-0.504,0.257,-0.133,0.141,-152.6222972286683,-59.35520012810016,-152.4646202105128,-59.42029234331138
1049.706,0.955,-0.265,-0.493,0.12,0.081,-0.065,-151.74084329215836,-59.62617590632119,-152.40666822990147,-59.430497640816434
1049.762,0.957,-0.259,-0.504,0.02,-0.003,0.065,-152.80187205149088,-59.3695813357067,-152.43007004593363,-59.42700738980227
1049.818,0.958,-0.263,-0.52,0.081,-0.102,0.004,-153.17111747423968,-58.68898171136439,-152.4750956935346,-59.38159458538392
1049.874,0.957,-0.265,-0.501,-0.025,1.89,0.057,-152.12375108497315,-59.36453635902404,-152.45143718563062,-59.28082696871837
1049.93,0.954,-0.26,-0.503,0.112,0.127,-0.095,-152.6656204546129,-59.30978292978219,-152.4591229731889,-59.2753174513673
1049.986,0.96,-0.265,-0.504,0.043,-0.064,0.027,-152.26489133756212,-59.32580548387932,-152.44254891765073,-59.28133116418768
1050.042,0.958,-0.261,-0.5,-0.048,-0.087,0.034,-152.43544106570084,-59.512565614020865,-152.44329572177807,-59.30117001972419
1050.098,0.956,-0.257,-0.516,-0.163,-0.209,-0.019,-153.5238483318973,-58.910417733474084,-152.52540189514963,-59.28472580860383
1050.155,0.95,-0.262,-0.506,0.059,-0.003,-0.095,-152.62548617392648,-59.04480379605844,-152.53016490871553,-59.26713487962047
1050.211,0.953,-0.259,-0.497,-0.064,0.051,0.134,-152.47477425625567,-59.54119593117083,-152.5308008446223,-59.28191235477516
1050.267,0.957,-0.264,-0.506,-0.033,-0.11,0.156,-152.4471884232822,-59.189273261638185,-152.5277401183831,-59.28021736287925
1050.324,0.951,-0.26,-0.496,0.043,0.005,0.202,-152.336761672182,-59.5074936980773,-152.51305420864165,-59.294507783920984
1050.38,0.965,-0.259,-0.501,0.043,0.005,0.202,-152.66257035409149,-59.69614426502306,-152.5216417219267,-59.32139720932833
1050.436,0.957,-0.261,-0.508,-0.125,-2.003,0.072,-152.80682918422033,-59.171755952956715,-152.54871086815976,-59.415494884000005
1050.493,0.953,-0.263,-0.497,-0.048,-0.033,0.057,-152.11332360271734,-59.45818771800902,-152.52236711148734,-59.4197630917288
1050.549,0.956,-0.264,-0.487,0.013,1.875,-0.126,-151.53812435929257,-59.90986310728355,-152.45375605976574,-59.35574029103881
1050.605,0.957,-0.26,-0.503,-0.003,0.081,0.095,-152.6656204546129,-59.38868014662363,-152.46701752043415,-59.35468132813129
1050.662,0.955,-0.263,-0.509,0.013,-0.094,0.172,-152.6746279197141,-59.039284792588894,-152.47957141490738,-59.33871320312903
1050.719,0.948,-0.263,-0.497,-0.056,-0.079,-0.103,-152.11332360271734,-59.326109122613914,-152.45631874459525,-59.342316509241854
1050.775,0.957,-0.261,-0.501,-0.086,0.142,-0.011,-152.48237518212156,-59.4470131244178,-152.46111732299403,-59.342446965102134
1050.831,0.952,-0.267,-0.5,0.013,-0.003,-0.027,-151.89778300272587,-59.23030669491758,-152.419834197061,-59.33528972798329
1050.887,0.958,-0.258,-0.51,-0.216,-0.117,0.011,-153.16595652922553,-59.17958868426831,-152.48033034366023,-59.330815345125856
1050.944,0.96,-0.257,-0.502,-0.071,-0.071,0.256,-152.88972392152854,-59.567455700711804,-152.51146532753486,-59.35095038484264
1051.0,0.961,-0.252,-0.497,-0.117,0.005,-0.004,-153.1130658075233,-59.89264990926441,-152.55914314589756,-59.38874454997578
1051.056,0.954,-0.278,-0.498,-0.254,-0.094,0.004,-150.82830659625242,-59.127290022001155,-152.45307266639196,-59.376984627136714
1051.112,0.949,-0.27,-0.502,0.013,-0.018,-0.088,-151.72647606631244,-59.009459233995095,-152.3992927880721,-59.3533466946954
1051.168,0.957,-0.267,-0.498,0.036,0.234,0.027,-151.80225703114763,-59.44029454706395,-152.35183508304195,-59.34738727555098
1051.225,0.958,-0.267,-0.503,-0.018,-0.064,-0.08,-152.03996202737676,-59.27113786086675,-152.32568041405528,-59.34588954928386
1051.282,0.955,-0.265,-0.5,-0.01,0.013,0.072,-152.07641028486162,-59.3511819948911,-152.30279362202492,-59.345808034544426
1051.338,0.959,-0.264,-0.503,0.112,-0.087,-0.057,-152.30722479706333,-59.35928193979807,-152.29079565620637,-59.35152572069444
1051.395,0.952,-0.261,-0.504,-0.102,-0.285,-0.065,-152.6222972286683,-59.197102963087005,-152.3127303478014,-59.356160997180396
1051.451,0.952,-0.264,-0.499,0.028,-0.003,-0.08,-152.11855798960363,-59.33221276166074,-152.29201689271193,-59.35456226503649
1051.507,0.958,-0.257,-0.5,0.12,-0.003,-0.034,-152.7968360560293,-59.594345607847806,-152.31473974813292,-59.3712552679543
1051.564,0.951,-0.255,-0.505,-0.094,-0.026,-0.08,-153.20848447058083,-59.25248872141783,-152.37677759509083,-59.36473136127503
1051.62,0.957,-0.262,-0.499,0.028,-0.178,0.134,-152.29827694532324,-59.50515824288923,-152.36664574848066,-59.383882389616645
1051.676,0.953,-0.255,-0.505,0.12,-0.323,0.156,-153.20848447058083,-59.305351005320055,-152.4155688907084,-59.39562848458474
1051.732,0.958,-0.254,-0.504,0.303,-0.033,-0.218,-153.25334632642063,-59.496391766803484,-152.45641182883426,-59.40452853897663
1051.789,0.958,-0.262,-0.51,-0.201,0.013,0.118,-152.8092787536748,-59.09952254724829,-152.49178879547284,-59.38300724999675
1051.845,0.949,-0.266,-0.5,-0.163,0.035,0.195,-151.98702257693284,-59.17169052271351,-152.46605182865503,-59.3662392270371
1051.901,0.958,-0.263,-0.485,-0.071,1.875,0.08,-151.53043810465556,-60.062048559462596,-152.40452211207818,-59.31622372757289
1051.958,0.957,-0.257,-0.492,0.028,0.081,-0.08,-152.41933631043497,-59.88540340601774,-152.40189693435053,-59.352516804519134
1052.014,0.949,-0.258,-0.508,-0.018,0.096,0.05,-153.07516843706014,-59.02020448309444,-152.44756015666044,-59.32656325973929
1052.07,0.958,-0.262,-0.504,0.089,0.051,-0.042,-152.53272766139187,-59.33481634507057,-152.4481423060806,-59.32595693582349
1052.126,0.958,-0.262,-0.501,0.066,-0.087,-0.057,-152.39249825695174,-59.45267177479015,-152.4403237344247,-59.34079268624501
1052.183,0.954,-0.26,-0.505,-0.117,-0.01,0.195,-152.75825848264267,-59.230906675247,-152.4680104581954,-59.33545722703478
1052.239,0.948,-0.262,-0.503,-0.163,0.104,-0.095,-152.4861306992901,-59.1098662420817,-152.47778925534,-59.31586828482055
1052.296,0.952,-0.259,-0.501,0.02,0.013,-0.004,-152.66257035409149,-59.356484338783005,-152.4896299503668,-59.31907941746202
1052.352,0.955,-0.264,-0.494,-0.079,-0.133,-0.027,-151.87937547453814,-59.60791520548394,-152.45173364939313,-59.347235869797515
1052.408,0.956,-0.265,-0.509,-0.056,0.043,-0.004,-152.49722167003046,-59.02514408577352,-152.4569712823894,-59.324321719025164
1052.465,0.955,-0.256,-0.496,0.127,0.135,0.042,-152.7004277886672,-59.69501393607572,-152.46640790422254,-59.34402576747438
1052.522,0.957,-0.263,-0.498,-0.064,-1.934,-0.004,-152.1609079922253,-59.52378267584538,-152.44829300998998,-59.46097029802575
1052.578,0.951,-0.259,-0.502,0.066,0.081,-0.103,-152.70915037758485,-59.29048570426556,-152.46213603765227,-59.44685832969306
1052.634,0.939,-0.265,-0.515,-0.224,0.173,0.065,-152.77132082290876,-58.3334822229296,-152.49499160327346,-59.362021025687014
1052.69,0.954,-0.261,-0.51,0.165,0.035,-0.05,-152.89823590832015,-59.013914385967304,-152.514723164934,-59.33533370146778
1052.746,0.951,-0.26,-0.503,0.028,1.89,0.057,-152.6656204546129,-59.23051791368764,-152.5248941871236,-59.22819255446562
1052.802,0.959,-0.262,-0.5,-0.041,0.104,-0.019,-152.34546152475534,-59.51812533392197,-152.51601754755674,-59.24155091411652
1052.858,0.954,-0.262,-0.499,0.059,-0.01,-0.103,-152.29827694532324,-59.42643742494356,-152.49889482093468,-59.25416034209723
1052.914,0.939,-0.262,-0.5,-0.132,-0.049,-0.164,-152.34546152475534,-58.987561399465335,-152.49575026439297,-59.2378301668201
1052.971,0.955,-0.26,-0.503,-0.3,-0.041,0.027,-152.6656204546129,-59.3361227568777,-152.52377087234794,-59.24589324124994
1053.027,0.953,-0.268,-0.511,-0.186,0.142,-0.011,-152.3247044797015,-58.8063104914549,-152.52024494126272,-59.20722640251326
1053.083,0.957,-0.257,-0.503,-0.018,1.883,-0.027,-152.93594831650006,-59.44952838188073,-152.5502344499489,-59.12431588297652
1053.139,0.958,-0.265,-0.499,-0.071,0.043,0.179,-152.02892141757218,-59.4691170398964,-152.5187707684021,-59.145122170059885
1053.195,0.956,-0.26,-0.509,0.135,0.043,0.126,-152.94180483899322,-59.12622091556377,-152.54104933887956,-59.14139329816938
1053.252,0.958,-0.26,-0.506,0.127,0.035,-0.126,-152.8043603594678,-59.29684408627112,-152.55346020197047,-59.15012478995717
1053.308,0.949,-0.263,-0.501,-0.102,0.173,0.011,-152.30276854779072,-59.19473830593237,-152.5427551915043,-59.14432466060758
1053.365,0.956,-0.265,-0.498,-0.155,0.112,0.126,-151.98128385290926,-59.45593225472224,-152.5128164043755,-59.16028052306683
1053.421,0.956,-0.251,-0.5,0.211,0.02,0.088,-153.34334893371513,-59.66321654820867,-152.55922298901913,-59.19507616403677
1053.477,0.961,-0.258,-0.506,-0.086,0.043,0.027,-152.98381027613473,-59.41568100773557,-152.59462388135555,-59.21008569776062
1053.534,0.96,-0.262,-0.501,0.104,-0.087,0.027,-152.39249825695174,-59.50494764304537,-152.57737802131626,-59.2376258003709
1053.59,0.956,-0.261,-0.507,-0.125,-0.033,0.072,-152.76091192493752,-59.18468418466963,-152.59852293147355,-59.238638668263214
1053.646,0.951,-0.27,-0.501,-0.109,0.043,0.011,-151.6787887619912,-59.10171890109627,-152.54252737953652,-59.22973746651565
1053.702,0.958,-0.259,-0.499,0.043,0.02,0.011,-152.5689687791425,-59.59303995298787,-152.54244090868778,-59.256501744896035
1053.758,0.958,-0.262,-0.5,0.043,-0.01,0.004,-152.34546152475534,-59.4919870364357,-152.52689727766017,-59.27669244398504
1053.815,0.953,-0.265,-0.503,-0.056,-0.094,-0.302,-152.21799098888474,-59.18072124575492,-152.50836918932075,-59.278868527876156
1053.871,0.954,-0.261,-0.5,-0.125,0.058,0.034,-152.43544106570084,-59.407647876379734,-152.50914462719072,-59.288370266718985
1053.927,0.953,-0.265,-0.496,-0.018,-2.01,0.08,-151.88556009501372,-59.45568962417108,-152.4659319721708,-59.40857464466092
1053.983,0.958,-0.26,-0.501,0.097,-0.087,0.072,-152.57239924249382,-59.493677999521545,-152.4661486030844,-59.4229634073868
1054.04,0.955,-0.268,-0.504,-0.033,-0.041,-0.355,-151.9983651873636,-59.13233440857419,-152.43346450831822,-59.40911212484435
1054.096,0.952,-0.263,-0.503,-0.01,0.035,-0.134,-152.3966047261581,-59.1954992828812,-152.42857216007667,-59.39593302750838
1054.152,0.938,-0.268,-0.508,-0.148,0.051,0.065,-152.18570614422475,-58.519914842915576,-152.41649108176952,-59.335467611558435
1054.208,0.96,-0.267,-0.5,-0.109,0.02,-0.149,-151.89778300272587,-59.44064489317205,-152.38271530929512,-59.3429623870543
1054.264,0.957,-0.264,-0.497,0.005,-2.01,0.072,-152.0233353300108,-59.54227000751081,-152.3529938502244,-59.462994700798326
1054.32,0.964,-0.257,-0.509,0.211,0.035,-0.111,-153.21026064329752,-59.395873807123216,-152.3962567410442,-59.45813775629826
1054.376,0.952,-0.263,-0.502,-0.224,0.104,-0.157,-152.34975997087932,-59.23485390446881,-152.4012661827197,-59.438711366727034
1054.432,0.961,-0.263,-0.505,-0.048,0.074,0.233,-152.48985672320333,-59.353794075271566,-152.4063621895711,-59.42999925480344
1054.488,0.958,-0.261,-0.5,0.059,0.242,-0.004,-152.43544106570084,-59.512565614020865,-152.40193767210852,-59.42398154080636
1054.544,0.955,-0.265,-0.499,0.127,0.005,0.24,-152.02892141757218,-59.39042392083695,-152.36615600646869,-59.42245685380369
1054.6,0.955,-0.263,-0.503,0.074,-0.171,-0.004,-152.3966047261581,-59.27473377318297,-152.36037093592506,-59.42211740614279
1054.656,0.96,-0.258,-0.503,-0.064,-2.003,-0.019,-152.84569338560962,-59.507769545199864,-152.39339640874167,-59.53311270867197
1054.712,0.955,-0.261,-0.504,0.226,0.081,0.111,-152.6222972286683,-59.276335049786304,-152.3945289118295,-59.51169943892983
1054.768,0.958,-0.259,-0.501,0.02,-0.064,0.072,-152.66257035409149,-59.514101180722065,-152.40961358931463,-59.51528973993497
1054.824,0.953,-0.265,-0.502,-0.071,-0.323,-0.21,-152.1709444449872,-59.21995808920232,-152.39487869227437,-59.511739819861496
1054.881,0.954,-0.259,-0.506,-0.048,1.883,-0.103,-152.89401339733217,-59.21171410470794,-152.42962725510773,-59.39046760208565
1054.937,0.954,-0.266,-0.496,-0.155,0.15,-0.095,-151.79577132837227,-59.46095367445872,-152.39237214085088,-59.38658337141867
1054.993,0.954,-0.257,-0.506,0.104,1.875,-0.225,-153.07375090013153,-59.25199737140117,-152.43153382501484,-59.27873904769058
1055.05,0.958,-0.26,-0.493,-0.178,0.051,0.317,-152.19358126224998,-59.80939881646731,-152.4231723301283,-59.31201450450096
1055.106,0.952,-0.265,-0.512,0.226,-0.064,0.126,-152.63490460080314,-58.80163661964724,-152.42432606367512,-59.28017132693602
1055.163,0.967,-0.261,-0.513,-0.117,-0.056,-0.057,-153.03428556712987,-59.23803593465421,-152.47159327805116,-59.279389976439674
1055.219,0.956,-0.258,-0.5,-0.102,0.051,-0.034,-152.70626595652075,-59.521666082966945,-152.49316000186175,-59.29266182003966
1055.275,0.956,-0.258,-0.495,-0.025,-0.071,0.05,-152.47092812754337,-59.71964924941115,-152.4933410888463,-59.32562301742338
1055.331,0.953,-0.26,-0.506,-0.064,0.135,0.233,-152.8043603594678,-59.1650525474006,-152.5186435349291,-59.30792088101758
1055.388,0.953,-0.261,-0.502,-0.224,-0.018,0.019,-152.52916216281136,-59.30240448642564,-152.53227955439704,-59.30865986514406
1055.444,0.953,-0.258,-0.503,0.02,-0.148,0.134,-152.84569338560962,-59.324103165652694,-152.5540119227856,-59.317595836430705
1055.501,0.957,-0.258,-0.495,-0.277,-2.01,-0.111,-152.47092812754337,-59.74572596176329,-152.5646015885762,-59.454138939537714
1055.557,0.956,-0.258,-0.51,0.051,-0.064,0.088,-153.16595652922553,-59.12687752695069,-152.60518593430848,-59.435537410172245
1055.613,0.958,-0.26,-0.503,0.02,0.028,-0.019,-152.6656204546129,-59.41489787626026,-152.6110276446931,-59.43277174296811
1055.67,0.956,-0.264,-0.499,0.036,0.043,-0.042,-152.11855798960363,-59.43750266791124,-152.5777211181441,-59.43090979383692
1055.726,0.958,-0.263,-0.495,0.089,-0.186,0.08,-152.01770468790866,-59.6679054874714,-152.5359329203699,-59.457181619503494
1055.782,0.954,-0.259,-0.506,0.074,0.058,0.118,-152.89401339733217,-59.21171410470794,-152.55759828200988,-59.43766958425892
1055.838,0.947,-0.258,-0.504,0.051,-0.033,-0.011,-152.89187712919824,-59.125396537787616,-152.57954711452987,-59.41776177250218
1055.895,0.955,-0.262,-0.503,-0.109,-0.171,0.111,-152.4861306992901,-59.295249655732334,-152.58094295940123,-59.417721243487144
1055.951,0.957,-0.264,-0.497,0.173,0.02,0.088,-152.0233353300108,-59.54227000751081,-152.53503013971294,-59.42448516607167
1056.008,0.958,-0.267,-0.5,0.043,-2.003,0.149,-151.89778300272587,-59.388304196020044,-152.48915485113872,-59.52759486989617
1056.064,0.952,-0.26,-0.502,0.249,0.104,-0.073,-152.61908305950791,-59.29648201561819,-152.48462962200486,-59.50520346893251
1056.12,0.962,-0.264,-0.514,-0.209,0.158,-0.042,-152.8141210207572,-59.008491508062775,-152.51813735367438,-59.461076847228014
1056.176,0.955,-0.261,-0.513,0.112,-0.125,0.149,-153.03428556712987,-58.922653284411474,-152.54853896482825,-59.42780535136955
1056.232,0.957,-0.262,-0.505,0.074,0.066,-0.011,-152.5791792802091,-59.26928414493314,-152.54825860433627,-59.40986400321504
1056.289,0.953,-0.26,-0.51,-0.025,0.119,-0.24,-152.98733465206146,-59.0074790863999,-152.5816570119049,-59.37170495454279
1056.345,0.957,-0.269,-0.491,0.081,-0.285,-0.019,-151.2833615341757,-59.671745391038606,-152.48961347878804,-59.40280008832111
1056.402,0.956,-0.259,-0.495,-0.003,0.051,-0.118,-152.37998164725192,-59.69896421612916,-152.48188041177073,-59.41661329895307
1056.458,0.957,-0.26,-0.489,-0.293,-0.11,0.042,-152.00054004044523,-59.941671134509605,-152.46318947933315,-59.455469723073065
1056.514,0.955,-0.262,-0.505,-0.109,-0.018,0.004,-152.5791792802091,-59.21660710602047,-152.4754168211944,-59.43749818206237
1056.571,0.96,-0.268,-0.504,-0.033,-0.239,0.225,-151.9983651873636,-59.26393224293098,-152.4426720887748,-59.4352525651386
1056.627,0.955,-0.267,-0.505,0.226,0.096,-0.034,-152.13401533990336,-59.11399193569732,-152.40716094369824,-59.40473322274733
1056.684,0.953,-0.258,-0.501,-0.094,0.051,0.118,-152.75288842974936,-59.403277119478695,-152.4332775981314,-59.398036530386015
1056.74,0.954,-0.266,-0.504,0.265,0.135,-0.149,-152.17590361574673,-59.147316784405334,-152.3993983669009,-59.36975058007435
1056.796,0.957,-0.264,-0.504,-0.216,-0.041,-0.065,-152.35402463626133,-59.267612485963795,-152.40483400091594,-59.36047967887938
1056.852,0.958,-0.264,-0.498,-0.071,0.089,0.095,-152.07102129131908,-59.52914940278603,-152.38255384960576,-59.36305457465014
1056.909,0.95,-0.26,-0.501,0.097,-0.003,0.103,-152.57239924249382,-59.283112109785655,-152.38708596850336,-59.3534359029089
1056.965,0.956,-0.261,-0.496,-0.056,0.096,-0.202,-152.24622055727315,-59.61795396878676,-152.37715175940417,-59.36252860407574
1057.021,0.954,-0.262,-0.51,0.074,0.066,-0.294,-152.8092787536748,-58.9937791796066,-152.39998531818375,-59.32972591145502
1057.078,0.956,-0.263,-0.505,0.043,-0.071,0.111,-152.48985672320333,-59.222557562579226,-152.40147438991636,-59.32147875756892
1057.134,0.954,-0.264,-0.504,0.15,0.028,-0.126,-152.35402463626133,-59.18853330514576,-152.38811616126253,-59.306077887179406
1057.19,0.951,-0.26,-0.51,0.051,0.104,0.004,-152.98733465206146,-58.95432036719046,-152.4247926381856,-59.271249343621086
1057.246,0.938,-0.256,-0.514,0.135,-2.003,-0.218,-153.52419451322697,-58.52594914437333,-152.4930815649105,-59.31817305749844
1057.303,0.956,-0.261,-0.504,0.005,-1.995,-0.164,-152.6222972286683,-59.30266407663872,-152.5030423774223,-59.415349397624034
1057.36,0.95,-0.263,-0.501,0.257,-0.003,-0.08,-152.30276854779072,-59.22127465893897,-152.47698271962162,-59.39419480744625
1057.416,0.956,-0.263,-0.498,-0.056,-0.041,0.019,-152.1609079922253,-59.49759258006597,-152.45900693147593,-59.39547085188347
1057.472,0.955,-0.259,-0.506,-0.186,-0.087,0.034,-152.89401339733217,-59.23810301994243,-152.49938203343478,-59.38123384242334
1057.529,0.953,-0.26,-0.509,0.028,0.104,0.019,-152.94180483899322,-59.04684788485284,-152.5300202595757,-59.34415717900433
1057.585,0.949,-0.264,-0.501,0.028,-1.926,0.042,-152.2131861322918,-59.17400957907152,-152.50874582628188,-59.4238691461932
1057.642,0.942,-0.255,-0.508,0.066,0.035,0.042,-153.34479031430982,-58.8929342158199,-152.56504425645818,-59.37552440087729
1057.698,0.958,-0.265,-0.502,-0.01,0.165,-0.172,-152.1709444449872,-59.351612631136916,-152.5414438139841,-59.35483084893248
1057.754,0.963,-0.268,-0.504,-0.025,-0.178,0.179,-151.9983651873636,-59.3424060343716,-152.50745230259668,-59.352801237886005
1057.811,0.954,-0.262,-0.492,0.28,-0.026,0.126,-151.96379151825604,-59.70271822886597,-152.4561327275303,-59.36788704107283
1057.867,0.949,-0.261,-0.503,-0.018,-0.041,0.118,-152.57580263647642,-59.156997626500605,-152.46564995885677,-59.34563212816566
1057.924,0.958,-0.263,-0.508,0.104,0.028,0.042,-152.62865019102762,-59.157647414874354,-152.47199076147652,-59.32074036044617
1057.98,0.958,-0.263,-0.501,0.104,-0.14,-0.011,-152.30276854779072,-59.432089190462,-152.45564209047734,-59.325283455599866
1058.036,0.954,-0.267,-0.499,0.081,-0.01,0.256,-151.8500944298715,-59.3222984002803,-152.40980681896497,-59.315333589040485
1058.093,0.957,-0.26,-0.508,0.043,0.18,0.263,-152.89613292503924,-59.191904394491694,-152.4406316262337,-59.28676537101074
1058.149,0.957,-0.263,-0.505,0.036,0.051,-0.111,-152.48985672320333,-59.24888591230922,-152.44245711355958,-59.271014053294785
1058.205,0.958,-0.26,-0.509,-0.025,1.867,-0.073,-152.94180483899322,-59.17893272323933,-152.4788699868884,-59.15682144958771
1058.262,0.952,-0.267,-0.511,-0.041,0.096,-0.202,-152.412712127676,-58.80007085697452,-152.4778740226888,-59.116254691570916
1058.318,0.941,-0.26,-0.506,0.15,-0.14,-0.141,-152.8043603594678,-58.84455673492724,-152.49403644019412,-59.093486177964714
1058.374,0.955,-0.255,-0.5,-0.155,-0.133,-0.111,-152.97841840882296,-59.55647116379727,-152.53775029595118,-59.120897527564104
1058.43,0.952,-0.28,-0.499,-0.003,0.096,0.088,-150.7022477276058,-58.99246799094217,-152.41324991096695,-59.09622012162669
1058.486,0.946,-0.27,-0.511,0.066,0.005,0.011,-152.14911395627573,-58.57773806950762,-152.3905919455687,-59.04895389382463
1058.542,0.958,-0.262,-0.503,-0.048,0.058,-0.179,-152.4861306992901,-59.374086311430574,-152.39832891028203,-59.05649216924296
1058.598,0.956,-0.263,-0.507,0.059,-0.01,0.088,-152.58252948781453,-59.144113244649084,-152.40683952701883,-59.051777962590364
1058.654,0.958,-0.261,-0.507,-0.109,-0.155,-0.103,-152.76091192493752,-59.2373379775395,-152.43628381180667,-59.06162200629929
1058.711,0.947,-0.26,-0.501,0.059,0.051,-0.004,-152.57239924249382,-59.203472266236695,-152.4425142028648,-59.057857141902545
1058.767,0.951,-0.263,-0.499,-0.079,-0.056,0.065,-152.20834318954937,-59.326594766796475,-152.43055576059334,-59.069040760982176
1058.823,0.949,-0.251,-0.495,-0.018,0.02,-0.034,-153.11176896545308,-59.67974781259887,-152.47849813414953,-59.10057714516198
1058.88,0.955,-0.257,-0.503,-0.064,0.242,0.141,-152.93594831650006,-59.397032321230526,-152.51481110655524,-59.0996489821305
1058.936,0.959,-0.264,-0.504,-0.163,-0.087,0.027,-152.35402463626133,-59.32012876261715,-152.51417061350313,-59.11161596466037
1058.993,0.955,-0.259,-0.498,-0.079,0.089,0.088,-152.5219459561066,-59.554087850184175,-152.520613448984,-59.13011139085954
1059.05,0.953,-0.26,-0.504,-0.163,-0.071,0.034,-152.7120120544845,-59.24393641638296,-152.5442942187078,-59.13520223333003
1059.106,0.961,-0.259,-0.498,-0.003,-0.026,-0.011,-152.5219459561066,-59.71061149411306,-152.5449537348868,-59.170347727234635
1059.162,0.956,-0.262,-0.504,-0.071,0.127,0.218,-152.53272766139187,-59.28225986695983,-152.5498099331287,-59.16647325985879
1059.218,0.961,-0.262,-0.511,-0.064,-2.003,0.027,-152.85487118706664,-59.139302083507104,-152.5763194718965,-59.264173050893845
1059.275,0.958,-0.259,-0.496,-0.018,0.203,0.088,-152.42745303569362,-59.71156139233343,-152.56955073039543,-59.27938262565533
1059.331,0.947,-0.259,-0.501,0.104,-0.003,-0.073,-152.66257035409149,-59.22400909253297,-152.57287204463748,-59.27158897400652
1059.387,0.951,-0.261,-0.508,0.028,1.883,-0.317,-152.80682918422033,-59.01294381057174,-152.59014735443245,-59.151286522347284
1059.443,0.958,-0.264,-0.502,0.028,-0.064,0.179,-152.26027883643468,-59.37225137656088,-152.56871766108637,-59.16546411450782
1059.499,0.958,-0.267,-0.504,-0.308,-0.026,-0.095,-152.08706154272343,-59.23211136918756,-152.5535756539396,-59.16739535334012
1059.555,0.957,-0.261,-0.512,-0.094,-0.14,-0.027,-152.98907627098953,-59.01481513226624,-152.58995063799563,-59.16018480473055
1059.612,0.955,-0.261,-0.504,-0.102,-0.018,0.019,-152.6222972286683,-59.276335049786304,-152.59976438403518,-59.16490542282754
1059.668,0.952,-0.262,-0.502,0.074,1.89,0.027,-152.43938777261386,-59.25544960187774,-152.58693218822776,-59.06872651026645
1059.725,0.957,-0.26,-0.505,0.135,0.203,0.019,-152.75825848264267,-59.30992242521258,-152.5935604562661,-59.07110048728823
1059.781,0.957,-0.263,-0.493,-0.14,0.18,0.195,-151.92148129456064,-59.72057617239623,-152.55633911212254,-59.10383238462096
1059.837,0.959,-0.27,-0.504,-0.117,0.112,-0.05,-151.82140989004085,-59.19616727424692,-152.51215891455792,-59.1027424018124
1059.898,0.955,-0.26,-0.502,0.005,0.013,0.08,-152.61908305950791,-59.375564669548346,-152.51854565272313,-59.11947762663868
1059.954,0.95,-0.26,-0.497,-0.109,0.035,-0.172,-152.38418711046916,-59.44149565886044,-152.51432923082803,-59.13924988491452
1060.01,0.938,-0.26,-0.504,-0.033,-0.186,-0.149,-152.7120120544845,-58.84296820554587,-152.5290405276093,-59.12804709725165
1060.066,0.955,-0.258,-0.495,-0.102,-0.033,0.118,-152.47092812754337,-59.69353182178113,-152.52990736126492,-59.16834676216046
1060.122,0.955,-0.257,-0.507,-0.064,0.074,-0.004,-153.11939697277333,-59.2388434133453,-152.5737971701935,-59.169720987692074
1060.178,0.956,-0.261,-0.498,0.043,-0.01,0.034,-152.34112889497263,-59.53904132265889,-152.55603954754872,-59.19643528836729
1060.234,0.953,-0.263,-0.508,-0.254,-0.041,-0.126,-152.62865019102762,-59.02550986935224,-152.5745381116265,-59.18790495823837
1060.291,0.952,-0.279,-0.504,-0.071,0.02,0.072,-151.03233935393598,-58.82120206569269,-152.47120894478326,-59.16218633034301
1060.347,0.952,-0.259,-0.493,-0.14,0.058,0.08,-152.28458576159235,-59.673569050749066,-152.46264096813505,-59.1948811957692
1060.404,0.956,-0.263,-0.508,0.036,1.883,-0.08,-152.62865019102762,-59.10491451872734,-152.46897499045014,-59.08995765362888
1060.46,0.96,-0.263,-0.502,0.013,-0.041,-0.134,-152.34975997087932,-59.44517388002012,-152.45708710420303,-59.118037765266166
1060.516,0.955,-0.263,-0.501,0.036,0.013,0.072,-152.30276854779072,-59.35334004038305,-152.44132344575425,-59.13567334468958
1060.573,0.958,-0.265,-0.504,-0.079,0.081,-0.256,-152.26489133756212,-59.27334966487846,-152.42970787895294,-59.1434299285312
1060.629,0.957,-0.262,-0.498,-0.094,0.043,0.179,-152.25094388478502,-59.54452308225526,-152.4183399198357,-59.17181788636906
1060.685,0.957,-0.26,-0.492,-0.064,0.066,0.103,-152.14555091886174,-59.82293319079989,-152.39850144278466,-59.21721670123251
1060.742,0.957,-0.261,-0.5,0.097,0.165,0.24,-152.43544106570084,-59.48639719497531,-152.39108860377473,-59.23217750696956
1060.798,0.955,-0.26,-0.504,-0.048,0.112,0.187,-152.7120120544845,-59.29669649774708,-152.41126492387127,-59.23627921527831
1060.854,0.958,-0.266,-0.497,0.02,-0.094,0.065,-151.84380855172742,-59.52658787445317,-152.36676300408192,-59.26695176068345
1060.911,0.958,-0.264,-0.486,0.013,0.074,0.004,-151.48875370589127,-60.00118948930941,-152.29971384421745,-59.320404922900174
1060.968,0.957,-0.268,-0.503,0.196,-0.186,0.164,-151.95116701244223,-59.22409226030301,-152.25796518259136,-59.33136658150665
1061.024,0.967,-0.265,-0.506,0.051,0.043,0.034,-152.3582559175115,-59.43028106932857,-152.25465605484055,-59.3434445611934
1061.08,0.953,-0.264,-0.502,-0.025,-0.049,0.05,-152.26027883643468,-59.24064858529481,-152.24894564081742,-59.346469720211395
1061.136,0.957,-0.26,-0.506,-0.033,-0.27,0.05,-152.8043603594678,-59.270567160645435,-152.2819165425184,-59.362649208343356
1061.192,0.955,-0.263,-0.501,-0.056,-0.201,-0.073,-152.30276854779072,-59.35334004038305,-152.280064585585,-59.37966161875806
1061.248,0.954,-0.259,-0.506,0.127,0.188,-0.134,-152.89401339733217,-59.21171410470794,-152.3099447930277,-59.365321458280114
1061.304,0.95,-0.264,-0.5,-0.056,-0.003,0.011,-152.16594605944917,-59.23993158304231,-152.29798527852503,-59.36355406420484
1061.36,0.955,-0.258,-0.5,-0.041,-0.232,-0.004,-152.70626595652075,-59.49544749553422,-152.3233099585057,-59.39131704340994
1061.416,0.956,-0.26,-0.504,0.158,0.066,0.111,-152.7120120544845,-59.32301532656886,-152.33774576121698,-59.389879908281145
1061.472,0.95,-0.267,-0.507,-0.033,0.013,0.218,-152.22748822645096,-58.9030417642755,-152.3283243817342,-59.362007091183074
1061.529,0.953,-0.256,-0.507,-0.209,-0.171,-0.202,-153.20937605328797,-59.20604861311736,-152.39684395763473,-59.36591981366402
1061.585,0.959,-0.261,-0.499,0.074,-0.026,0.195,-152.3883591816724,-59.578052680642635,-152.39048976803457,-59.387232251625
1061.641,0.956,-0.28,-0.506,0.059,0.15,0.011,-151.04162654526047,-58.82937798810239,-152.29184457397164,-59.34632880775289
1061.697,0.952,-0.257,-0.499,-0.018,0.142,-0.103,-152.75017131591287,-59.47666878152859,-152.31991191923598,-59.352477678606746
1061.753,0.958,-0.259,-0.507,-0.125,0.173,-0.134,-152.93986799890754,-59.27765771152457,-152.3657186414821,-59.34304618118243
1061.81,0.958,-0.277,-0.492,-0.048,-0.285,0.065,-150.62013520716775,-59.48612899002349,-152.24450155022507,-59.37281623219415
1061.866,0.943,-0.26,-0.515,-0.094,0.173,-0.103,-153.21287327022856,-58.542480126921035,-152.31058653248527,-59.31101996787146
1061.923,0.959,-0.265,-0.497,0.204,0.035,0.019,-151.93349695754702,-59.57363537400924,-152.26942089490606,-59.33065275517766
1061.979,0.956,-0.26,-0.507,0.028,-0.01,0.019,-152.85031830221683,-59.204890631539456,-152.30351891286304,-59.32615246718696
1062.036,0.951,-0.254,-0.508,-0.209,-0.384,0.141,-153.434948822922,-59.153282339930506,-152.3896337004086,-59.338005142144446
1062.092,0.947,-0.266,-0.507,-0.025,-0.881,0.004,-152.31603289235483,-58.84344583426182,-152.38454774812357,-59.352566715803974
1062.148,0.963,-0.254,-0.495,0.005,3.211,0.141,-152.83622050971567,-59.98323443838363,-152.41425300388767,-59.23098403861999
1062.204,0.965,-0.265,-0.499,0.211,-3.461,-0.263,-152.02892141757218,-59.65131944228982,-152.3759999783474,-59.44411453975384
1062.26,0.956,-0.259,-0.492,-0.178,3.035,0.355,-152.23665995352374,-59.817784789730666,-152.3743404725044,-59.31594867572614
1062.316,0.945,-0.276,-0.508,0.165,-2.102,-0.042,-151.48445318953569,-58.542414043402395,-152.30239023463443,-59.37692803235782
1062.372,0.959,-0.259,-0.496,0.143,1.951,-0.172,-152.42745303569362,-59.737587855679024,-152.30024242748507,-59.303591892740066
1062.428,0.96,-0.259,-0.507,-0.079,-1.339,0.126,-152.93986799890754,-59.3301092314074,-152.3456548875656,-59.379474415362715
1062.485,0.956,-0.242,-0.498,0.097,-0.163,0.164,-154.08285409130355,-59.92189534442195,-152.45938166336992,-59.43002785761076
1062.541,0.959,-0.256,-0.516,-0.3,1.379,0.202,-153.6128854543324,-59.00928270940808,-152.5569496184288,-59.33419073678115
1062.597,0.951,-0.268,-0.498,0.036,-1.216,-0.164,-151.7129677737343,-59.26122226532964,-152.50064319859945,-59.39701585644062
1062.653,0.959,-0.269,-0.505,-0.018,1.906,0.08,-151.95696498892687,-59.178061084021486,-152.46626321432547,-59.286712519903055
1062.709,0.96,-0.256,-0.499,-0.132,0.654,0.385,-152.8409947142412,-59.70635028251154,-152.5004394801991,-59.28573374520792
1062.765,0.959,-0.255,-0.494,0.173,-0.911,-0.118,-152.6974734842709,-59.89911931807779,-152.5071412954756,-59.380683407005215
1062.822,0.952,-0.266,-0.517,0.005,-0.056,0.095,-152.77387301133658,-58.586273710445056,-152.5279139946795,-59.33464977917796
1062.879,0.956,-0.272,-0.489,0.036,-2.133,-0.011,-150.91555953171573,-59.659067635798536,-152.41698437230443,-59.47481205470508
1062.935,0.958,-0.253,-0.511,0.036,0.593,-0.073,-153.65963700254653,-59.23888691961965,-152.5011455975969,-59.43232743970145
1062.991,0.955,-0.256,-0.495,0.005,-0.178,-0.111,-152.65327320478616,-59.73476006467094,-152.51370514104224,-59.46699567258827
1063.047,0.957,-0.262,-0.5,-0.125,0.226,-0.057,-152.34546152475534,-59.465808202326336,-152.5110950515483,-59.460112386825294
1063.103,0.953,-0.268,-0.499,-0.048,0.616,0.317,-151.76090414270442,-59.27492893638727,-152.46370081487808,-59.42014237803738
1063.16,0.957,-0.273,-0.493,0.28,-0.43,0.363,-151.024397270386,-59.50780068828924,-152.34946429498785,-59.453791008473935
1063.216,0.961,-0.253,-0.512,-0.025,-0.781,-0.073,-153.7041517574458,-59.27805195793047,-152.44258061086168,-59.48706484447051
1063.273,0.962,-0.258,-0.496,-0.064,0.577,0.141,-152.51829456653672,-59.83599690427791,-152.45174156572793,-59.485127155829105
1063.329,0.951,-0.263,-0.501,-0.071,-1.224,-0.08,-152.30276854779072,-59.24776980710786,-152.44572595184172,-59.53750847004148
1063.385,0.961,-0.268,-0.492,-0.193,0.394,0.149,-151.4221874983153,-59.75807788294969,-152.38497942985944,-59.536763900558526
1063.442,0.958,-0.258,-0.496,0.181,-0.186,-0.027,-152.51829456653672,-59.732175799722384,-152.38280596369478,-59.565257656591605
1063.498,0.968,-0.259,-0.508,0.127,-0.201,-0.065,-152.98557937421407,-59.49915209150874,-152.4165832056278,-59.576455639841605
1063.554,0.956,-0.269,-0.494,0.013,0.867,0.279,-151.43018716285232,-59.52827364701435,-152.34710171523685,-59.53307836032034
1063.611,0.954,-0.261,-0.51,0.036,-1.262,-0.042,-152.89823590832015,-59.013914385967304,-152.38120375147952,-59.569125465021486
1063.667,0.956,-0.263,-0.502,0.112,0.348,0.05,-152.34975997087932,-59.340339475565585,-152.37204546747714,-59.538989139947994
1063.724,0.953,-0.261,-0.502,-0.003,-0.652,0.072,-152.52916216281136,-59.30240448642564,-152.38193155460215,-59.560628318019624
1063.78,0.959,-0.259,-0.496,-0.048,0.463,0.027,-152.42745303569362,-59.737587855679024,-152.38674073880674,-59.551702410759866
1063.836,0.957,-0.265,-0.504,0.074,0.555,0.141,-152.26489133756212,-59.24706101163672,-152.37364471857157,-59.504903909271476
1063.892,0.955,-0.267,-0.496,0.036,-0.415,-0.034,-151.7061332299341,-59.466145850725596,-152.32436398704425,-59.526564744724915
1063.948,0.953,-0.262,-0.51,-0.071,0.547,0.065,-152.8092787536748,-58.967241444729126,-152.35937455311662,-59.46179453703409
1064.005,0.956,-0.264,-0.504,-0.14,-0.308,0.218,-152.35402463626133,-59.24129347753553,-152.365019563464,-59.464320854179874
1064.061,0.956,-0.268,-0.492,0.02,0.333,-0.248,-151.4221874983153,-59.62786448480603,-152.2970285442463,-59.45934114197134
1064.117,0.958,-0.261,-0.497,-0.048,-0.01,0.149,-152.29374956733488,-59.630747586311955,-152.29595191770895,-59.47315071393392
1064.174,0.964,-0.258,-0.5,0.158,-1.094,-0.042,-152.70626595652075,-59.72995631711979,-152.31269518357107,-59.55079042927803
1064.23,0.95,-0.281,-0.506,-0.163,1.219,-0.05,-150.95501089991183,-58.648060554417505,-152.22431793143193,-59.42663698444999
1064.286,0.959,-0.269,-0.498,-0.01,-0.728,0.027,-151.6238280307313,-59.45062313809222,-152.17780762674514,-59.46663511077866
1064.342,0.956,-0.265,-0.499,0.097,0.883,0.156,-152.02892141757218,-59.41669563503114,-152.15588077825933,-59.41751386142798
1064.399,0.964,-0.262,-0.494,-0.064,-0.758,-0.355,-152.0601140423526,-59.883688825904954,-152.14568463612028,-59.49049657362021
1064.455,0.951,-0.262,-0.51,-0.086,-0.407,-0.088,-152.8092787536748,-58.91404312249494,-152.18929171845568,-59.47286783468753
1064.511,0.956,-0.264,-0.5,-0.132,0.325,0.019,-152.16594605944917,-59.39823117462653,-152.1889240716864,-59.45073809554258
1064.568,0.957,-0.261,-0.502,-0.025,-0.133,0.141,-152.52916216281136,-59.40764422475577,-152.20813603610972,-59.45466792957072
1064.624,0.956,-0.254,-0.499,0.081,-0.018,-0.034,-153.02308529760313,-59.642641780975474,-152.25560738679175,-59.468444229321314
1064.681,0.95,-0.253,-0.508,-0.041,-0.133,-0.141,-153.5252494250873,-59.1465826793115,-152.34280207863506,-59.453264411084085
1064.737,0.949,-0.268,-0.498,-0.01,0.119,-0.011,-151.7129677737343,-59.208204265396375,-152.29889019675963,-59.42949701228329
1064.794,0.959,-0.261,-0.506,0.074,-0.339,0.218,-152.7148512551617,-59.302856208356694,-152.3219511317824,-59.4376273319182
1064.85,0.955,-0.262,-0.505,-0.17,0.043,0.462,-152.5791792802091,-59.21660710602047,-152.34764570152356,-59.418695715240425
1064.906,0.952,-0.265,-0.498,0.181,-0.194,0.019,-151.98128385290926,-59.3506795986555,-152.31219361889535,-59.422310523192145
1064.962,0.963,-0.262,-0.499,-0.178,0.547,0.072,-152.29827694532324,-59.66150533036645,-152.3192224387351,-59.40851208510506
1065.018,0.953,-0.262,-0.499,0.074,-0.369,0.042,-152.29827694532324,-59.400115516856104,-152.31258552365935,-59.425795279867245
1065.075,0.957,-0.264,-0.5,-0.17,0.707,0.042,-152.16594605944917,-59.42447149613422,-152.31002184231193,-59.3867632683875
1065.131,0.95,-0.253,-0.506,-0.102,-0.835,-0.21,-153.434948822922,-59.22619269011874,-152.3918649038367,-59.41777496384035
1065.188,0.965,-0.255,-0.5,-0.163,0.982,0.103,-152.97841840882296,-59.81652479246913,-152.44197015796462,-59.39164819824742
1065.244,0.957,-0.262,-0.503,-0.132,-0.606,0.034,-152.4861306992901,-59.34784806711403,-152.45374966843968,-59.419361961828
1065.3,0.949,-0.268,-0.505,-0.422,-0.514,-0.324,-152.045417578269,-58.933933823643926,-152.44925393154904,-59.41142330486233
1065.356,0.956,-0.259,-0.503,-0.102,-0.14,0.393,-152.75558406745677,-59.3827683282881,-152.47686307819427,-59.41469235264589
1065.412,0.959,-0.263,-0.492,-0.17,0.104,0.057,-151.87314129476422,-59.81199409597515,-152.4454049951503,-59.434768245687664
1065.468,0.951,-0.264,-0.498,-0.193,0.005,0.141,-152.07102129131908,-59.34517329406365,-152.4298165189675,-59.42701652814465
1065.525,0.955,-0.266,-0.498,-0.224,-0.14,0.027,-151.89169574467448,-59.40876086613559,-152.4038422928746,-59.431696679087196
1065.581,0.959,-0.258,-0.494,-0.025,0.348,0.088,-152.4234109535531,-59.83733821066038,-152.4049270710597,-59.44024880058922
1065.637,0.952,-0.257,-0.499,-0.125,0.31,-0.103,-152.75017131591287,-59.47666878152859,-152.4338865658512,-59.42600460201406
1065.693,0.955,-0.259,-0.499,0.066,-0.194,0.156,-152.5689687791425,-59.514535313560856,-152.43899286146555,-59.44175448055667
1065.75,0.952,-0.261,-0.5,0.051,-0.194,0.065,-152.43544106570084,-59.354944107066366,-152.43548447608055,-59.44565743699518
1065.806,0.951,-0.265,-0.496,0.234,-0.369,-0.134,-151.88556009501372,-59.4029791292136,-152.38453301758867,-59.46137254299347
1065.862,0.954,-0.264,-0.506,-0.071,-0.018,-0.332,-152.4471884232822,-59.11007709152257,-152.39093078195646,-59.43723154767093
1065.919,0.955,-0.268,-0.495,0.158,0.287,-0.004,-151.56825904397527,-59.48417148677466,-152.3237984385648,-59.42384542928622
1065.976,0.954,-0.254,-0.505,-0.155,-0.026,0.08,-153.29896225979954,-59.351721543662535,-152.3966084063298,-59.41891426862258
1066.032,0.949,-0.26,-0.504,-0.109,0.119,0.011,-152.7120120544845,-59.137924209355184,-152.42302328634827,-59.39175205631662
1066.088,0.957,-0.253,-0.505,0.036,-1.995,0.019,-153.38958400301678,-59.45047170207575,-152.48778766072894,-59.497805130293386
1066.145,0.954,-0.262,-0.5,-0.064,-0.094,0.095,-152.34546152475534,-59.387027645136534,-152.48274673575014,-59.49295787645803
1066.201,0.961,-0.263,-0.504,0.059,-0.033,-0.05,-152.44330343688233,-59.392941511699846,-152.47806663077958,-59.48539849063887
1066.257,0.953,-0.262,-0.506,0.051,-0.148,-0.149,-152.62548617392648,-59.12442993774181,-152.48671872031414,-59.465486213585066
1066.314,0.955,-0.26,-0.498,-0.071,-0.056,-0.172,-152.43146294556178,-59.53348651041949,-152.48803206974193,-59.46984404699899
1066.37,0.954,-0.265,-0.502,-0.102,0.058,-0.157,-152.1709444449872,-59.246370554430506,-152.47253556127,-59.44813542841058
1066.426,0.954,-0.262,-0.504,-0.132,-0.041,-0.027,-152.53272766139187,-59.229540613710654,-152.48417123444068,-59.431482442415444
1066.482,0.956,-0.266,-0.504,0.135,0.074,-0.141,-152.17590361574673,-59.200117975927554,-152.45639329392992,-59.40750676551382
1066.539,0.951,-0.263,-0.505,0.036,-0.323,-0.042,-152.48985672320333,-59.09030380691286,-152.45687082007163,-59.397992849003245
1066.595,0.957,-0.266,-0.503,0.127,-0.056,0.126,-152.1289033754148,-59.26555230162482,-152.42758155688787,-59.386518518779226
1066.651,0.95,-0.261,-0.506,0.44,-0.232,0.065,-152.7148512551617,-59.0651718466119,-152.42408840612302,-59.37082046182025
1066.707,0.957,-0.26,-0.511,-0.071,0.448,0.195,-153.03272296916714,-59.07403134088951,-152.4701890023551,-59.320723851717084
1066.764,0.955,-0.258,-0.502,-0.041,-0.087,0.118,-152.79936402875168,-59.41632192160331,-152.49664004419722,-59.32518855052737
1066.82,0.957,-0.263,-0.5,0.226,-0.01,0.004,-152.25562983051745,-59.4451662258402,-152.47014446193978,-59.327573747958134
1066.876,0.949,-0.261,-0.503,0.066,0.142,0.172,-152.57580263647642,-59.156997626500605,-152.47560505814997,-59.30210633719067
1066.932,0.96,-0.258,-0.497,0.059,0.165,-0.057,-152.5655109222079,-59.744636371991426,-152.48055609901772,-59.31771161861596
1066.988,0.962,-0.266,-0.513,0.036,0.028,-0.118,-152.5924245621816,-59.00724176537925,-152.48841745713978,-59.289101838943516
1067.044,0.956,-0.266,-0.505,-0.338,0.112,0.08,-152.22275820678058,-59.16101860537584,-152.4897871686463,-59.268157590217136
1067.1,0.963,-0.265,-0.495,0.051,-0.293,-0.027,-151.8374726256764,-59.75593717400462,-152.44346063118465,-59.31082964607259
1067.156,0.951,-0.265,-0.498,-0.247,0.013,-0.21,-151.98128385290926,-59.32426404278409,-152.42452511672664,-59.3056179619586
1067.212,0.957,-0.26,-0.505,-0.041,-0.018,0.286,-152.75825848264267,-59.30992242521258,-152.44909716814783,-59.30142945945585
1067.268,0.954,-0.26,-0.501,-0.094,0.158,0.027,-152.57239924249382,-59.388722028898485,-152.46251555592028,-59.293843801298465
1067.325,0.958,-0.26,-0.51,0.173,-0.194,0.118,-152.98733465206146,-59.139661112914034,-152.48999427696992,-59.28813959637742
1067.381,0.96,-0.261,-0.515,-0.041,0.272,0.218,-153.12428536342998,-58.97654337075612,-152.53747564184533,-59.24680920222886
1067.438,0.949,-0.261,-0.505,-0.293,-0.842,-0.454,-152.66864656179987,-59.07802156896875,-152.5647916893254,-59.273506606061346
1067.494,0.949,-0.257,-0.501,0.15,0.074,0.027,-152.84335337909627,-59.31799396307762,-152.5791701813199,-59.26618248114675
1067.55,0.953,-0.265,-0.51,-0.209,-0.377,0.095,-152.54325771540013,-58.90649277239375,-152.5909988027768,-59.25440649392618
1067.606,0.955,-0.261,-0.501,-0.048,0.455,0.072,-152.48237518212156,-59.394514523931456,-152.58928428831777,-59.233207338541206
1067.662,0.955,-0.265,-0.5,-0.086,-0.064,-0.172,-152.07641028486162,-59.3511819948911,-152.56125572762951,-59.2378734884993
1067.719,0.953,-0.262,-0.497,0.165,0.196,0.095,-152.2034617060853,-59.47901985584585,-152.5296946180214,-59.237507990087444
1067.776,0.941,-0.265,-0.506,0.097,-0.102,-0.095,-152.3582559175115,-58.74199953075618,-152.51394031338953,-59.20228225909157
1067.832,0.955,-0.26,-0.495,0.173,-0.094,-0.034,-152.2891859847469,-59.65208645527955,-152.49024528448498,-59.231355947241106
1067.888,0.952,-0.26,-0.505,-0.117,1.883,-0.073,-152.75825848264267,-59.17802534372759,-152.51546316520879,-59.12337151036851
1067.944,0.945,-0.262,-0.51,0.036,-0.003,0.034,-152.8092787536748,-58.753459317210115,-152.53503404371847,-59.09179339086776
1068.0,0.951,-0.26,-0.499,-0.148,0.013,0.034,-152.4785898201591,-59.38869707474893,-152.54047074721205,-59.104947790597684
1068.056,0.959,-0.263,-0.495,-0.285,0.318,0.134,-152.01770468790866,-59.69395430763819,-152.5205336196455,-59.12311289286323
1068.112,0.95,-0.269,-0.495,0.188,0.15,0.21,-151.47882395274854,-59.331157113418776,-152.43881912135143,-59.12484460835326
1068.168,0.953,-0.264,-0.502,-0.102,-0.522,-0.019,-152.26027883643468,-59.24064858529481,-152.4300073775305,-59.15564945534437
1068.225,0.952,-0.261,-0.509,-0.148,-0.239,0.004,-152.85260364302823,-59.00015809779759,-152.46506284797908,-59.15320248873411
1068.282,0.958,-0.263,-0.51,-0.17,0.249,0.034,-152.72046327873832,-59.079374695551785,-152.49056160623977,-59.130195556924
1068.338,0.951,-0.259,-0.504,-0.033,-0.323,0.042,-152.80187205149088,-59.21136151608014,-152.513176384043,-59.147969105769455
1068.394,0.962,-0.264,-0.505,-0.109,0.341,0.149,-152.4006789730257,-59.35952052445653,-152.51093832942968,-59.14034092973883
1068.45,0.958,-0.261,-0.505,-0.041,-0.774,-0.027,-152.66864656179987,-59.315897126641275,-152.52368331637294,-59.18879686962869
1068.506,0.96,-0.25,-0.497,0.051,1.295,-0.011,-153.29677598905906,-59.90702316583616,-152.5746860325257,-59.167397896072416
1068.562,0.952,-0.262,-0.5,0.158,-1.835,-0.111,-152.34546152475534,-59.33430305615296,-152.55211598598197,-59.272462001718154
1068.619,0.96,-0.261,-0.498,-0.025,1.013,0.271,-152.34112889497263,-59.643474112334076,-152.53991944146262,-59.24246725686062
1068.675,0.954,-0.256,-0.505,-0.071,-0.56,0.057,-153.118150742791,-59.311665529966035,-152.58446566658677,-59.275334127901516
1068.732,0.959,-0.267,-0.507,-0.27,0.31,0.065,-152.22748822645096,-59.14144707347586,-152.57585978569247,-59.24852388039872
1068.788,0.957,-0.258,-0.499,-0.132,0.119,-0.103,-152.6594959737607,-59.58738992907536,-152.58963936745542,-59.26459739428693
1068.845,0.956,-0.26,-0.502,-0.071,0.104,-0.034,-152.61908305950791,-59.40184387190384,-152.59671847256186,-59.26805716600554
1068.901,0.954,-0.264,-0.496,-0.14,0.02,0.141,-151.97549946792975,-59.50296051964278,-152.562108262756,-59.283084715047856
1068.958,0.955,-0.268,-0.499,0.074,-0.224,0.011,-151.76090414270442,-59.32765795913356,-152.5024146384554,-59.298293594416904
1069.014,0.958,-0.269,-0.505,-0.071,0.096,-0.195,-151.95696498892687,-59.15175253056659,-152.46651245144366,-59.28338635445587
1069.07,0.96,-0.254,-0.5,-0.094,-0.522,-0.042,-153.06943046734727,-59.70718337194595,-152.51054428697907,-59.34005085804481
1069.126,0.952,-0.259,-0.508,-0.155,0.638,0.118,-152.98557937421407,-59.07985865751888,-152.5500911132971,-59.28953208655123
1069.182,0.945,-0.265,-0.5,0.196,-1.178,-0.286,-152.07641028486162,-59.08601025599962,-152.50638146021132,-59.337120663256826
1069.238,0.952,-0.261,-0.5,0.12,0.974,0.134,-152.43544106570084,-59.354944107066366,-152.4936638341026,-59.287392429651355
1069.294,0.962,-0.255,-0.505,-0.132,0.112,0.225,-153.20848447058083,-59.54121382538361,-152.54851572271699,-59.29912078001611
1069.35,0.956,-0.269,-0.497,0.226,-0.331,-0.294,-151.57564375084132,-59.41103624746146,-152.4689954790608,-59.32461525083684
1069.406,0.953,-0.258,-0.505,-0.033,-1.01,-0.05,-152.9379158852027,-59.2449933581101,-152.5010784810987,-59.372390609822574
1069.462,0.938,-0.271,-0.512,-0.163,0.455,-0.118,-152.10787083204792,-58.30104439540611,-152.4810732061958,-59.2747214915382
1069.518,0.954,-0.258,-0.507,-0.094,0.593,0.156,-153.0295609213491,-59.19238802497511,-152.5219825875259,-59.23633208593379
1069.575,0.957,-0.264,-0.493,-0.048,0.211,-0.05,-151.83108605176707,-59.69953413165984,-152.4756148973381,-59.25540419864602
1069.631,0.959,-0.261,-0.502,-0.14,0.509,0.034,-152.52916216281136,-59.46002005856768,-152.48428146011454,-59.24220002969829
1069.687,0.939,-0.267,-0.493,0.043,-0.995,-0.088,-151.56081546368682,-59.15940041341762,-152.41569424719214,-59.28790301063133
1069.744,0.957,-0.256,-0.501,0.013,0.822,-0.057,-152.93396510853773,-59.548911529994086,-152.4467968107065,-59.26173945833205
1069.8,0.941,-0.255,-0.498,-0.01,-0.453,-0.202,-152.88536587523308,-59.265572464953,-152.47471853359812,-59.285561981687295
1069.856,0.959,-0.257,-0.499,-0.086,0.555,0.019,-152.75017131591287,-59.65998639715472,-152.49617690263145,-59.28254560995617
1069.912,0.954,-0.264,-0.505,0.066,-0.056,0.141,-152.4006789730257,-59.149297491906154,-152.4845209955063,-59.27695685735021
1069.969,0.952,-0.265,-0.507,0.158,-0.323,-0.05,-152.40472137529142,-58.99737533443634,-152.46879135169004,-59.27512937750674
1070.025,0.957,-0.269,-0.5,-0.109,0.318,0.011,-151.71974850826314,-59.320214614533285,-152.4205232121054,-59.26153383125355
1070.081,0.959,-0.258,-0.489,0.043,-0.155,0.202,-152.18354101632977,-60.035458161789535,-152.39835473082996,-59.323331096287525
1070.137,0.954,-0.259,-0.492,0.204,0.074,0.042,-152.23665995352374,-59.76561034323678,-152.37255091787523,-59.35173511674424
1070.194,0.953,-0.278,-0.511,0.051,-0.606,-0.057,-151.45242496183764,-58.59946579980201,-152.30157886562455,-59.33411379256803
1070.25,0.951,-0.266,-0.506,-0.109,0.211,-0.164,-152.26946776212193,-58.98943076390698,-152.2988948962866,-59.30001321078366
1070.306,0.953,-0.265,-0.502,-0.163,0.471,0.172,-152.1709444449872,-59.21995808920232,-152.29230398612523,-59.270060284006966
1070.362,0.962,-0.258,-0.495,-0.041,-0.27,0.233,-152.47092812754337,-59.87550174000015,-152.30037517857136,-59.32620844695624
1070.419,0.961,-0.265,-0.499,-0.132,-0.697,0.088,-152.02892141757218,-59.54744533871471,-152.28231263226786,-59.37983282070565
1070.475,0.951,-0.269,-0.507,-0.025,-0.247,-0.118,-152.0508306322378,-58.88840021320277,-152.2608809013423,-59.36019122452978
1070.531,0.967,-0.261,-0.502,0.074,0.02,-0.126,-152.52916216281136,-59.66791198034793,-152.26854026098528,-59.38110548492391
1070.588,0.958,-0.26,-0.49,-0.018,0.814,0.057,-152.04903097210982,-59.92803308289123,-152.24757845491914,-59.37719661678009
1070.644,0.957,-0.255,-0.487,0.127,-0.774,-0.034,-152.36281772697083,-60.12599743336948,-152.2419886985035,-59.47200961459378
1070.7,0.939,-0.26,-0.512,-0.071,-0.026,0.134,-153.07797039218974,-58.55266410527966,-152.29705430057595,-59.41338932369065
1070.756,0.955,-0.264,-0.502,0.028,-0.529,0.271,-152.26027883643468,-59.29341195788524,-152.28806134655687,-59.43460786316781
1070.812,0.961,-0.258,-0.498,0.005,0.638,0.187,-152.61257784292386,-59.73109613951243,-152.30529180407748,-59.423618501471715
1070.868,0.962,-0.257,-0.486,0.02,-0.102,-0.034,-152.12981917011317,-60.25270111015777,-152.28770886398635,-59.488839641456174
1070.925,0.954,-0.257,-0.487,-0.033,0.005,0.072,-152.1784597513468,-60.006298268695666,-152.27707435216314,-59.52864840836328
1070.982,0.955,-0.26,-0.516,-0.094,-0.026,0.103,-153.25756307538975,-58.82484372171086,-152.3452308961781,-59.486279792317326
1071.038,0.958,-0.26,-0.503,0.12,0.051,0.065,-152.6656204546129,-59.41489787626026,-152.3583492660162,-59.482297685209005
1071.094,0.949,-0.267,-0.506,-0.01,0.081,0.019,-152.1808240313397,-58.91550293846062,-152.34431388456395,-59.44217609648893
1071.15,0.963,-0.264,-0.515,-0.209,-0.774,-0.034,-152.8593537099106,-58.9958551788263,-152.38840312911861,-59.45382125777649
1071.206,0.96,-0.261,-0.492,-0.361,2.211,0.324,-152.05459474947756,-59.87990119216417,-152.38249420622637,-59.369499196746396
1071.262,0.959,-0.262,-0.502,0.043,-2.743,-0.065,-152.43938777261386,-59.439549459223755,-152.38193876361575,-59.51974080539055
1071.319,0.958,-0.265,-0.496,-0.186,1.638,0.233,-151.88556009501372,-59.58675051492965,-152.35513137528625,-59.4398180437418
1071.375,0.955,-0.262,-0.509,-0.125,-3.255,-0.179,-152.76354464007204,-59.05951035728313,-152.3868397745778,-59.58559570768102
1071.431,0.953,-0.26,-0.502,-0.086,1.951,0.088,-152.61908305950791,-59.32288382538857,-152.40510768702813,-59.46709756850805
1071.488,0.96,-0.261,-0.497,0.127,-1.934,-0.019,-152.29374956733488,-59.68284273059647,-152.38872814214233,-59.585785763247515
1071.544,0.959,-0.262,-0.503,0.051,0.562,0.286,-152.4861306992901,-59.400284025690404,-152.39075945293658,-59.54492126080821
1071.6,0.952,-0.264,-0.508,-0.216,-0.652,0.103,-152.53977511271094,-58.97860392774299,-152.41049907203436,-59.540544501726494
1071.656,0.95,-0.265,-0.507,0.036,-0.499,-0.088,-152.40472137529142,-58.9441507252,-152.40664028532248,-59.52487140244074
1071.713,0.956,-0.251,-0.506,-0.247,0.356,0.416,-153.6164075337689,-59.42412652195195,-152.50222264926882,-59.49741467584698
1071.769,0.954,-0.264,-0.501,0.135,-1.255,-0.05,-152.2131861322918,-59.30633205276203,-152.47599094191375,-59.54782520636977
1071.825,0.963,-0.264,-0.511,0.127,0.814,0.187,-152.67758372129532,-59.151573675720876,-152.4836821939885,-59.475637586792935
1071.882,0.957,-0.269,-0.506,-0.323,-0.69,0.103,-152.00397012548513,-59.086484516906424,-152.468206720876,-59.48215990115307
1071.938,0.961,-0.258,-0.502,0.249,1.264,0.05,-152.79936402875168,-59.573264911621486,-152.47795312865944,-59.41878699801912
1071.994,0.955,-0.258,-0.501,-0.109,-0.43,-0.004,-152.75288842974936,-59.45587686473127,-152.5031536342066,-59.44027277639443
1072.05,0.955,-0.256,-0.498,-0.148,1.28,0.126,-152.79428789434584,-59.6155678920176,-152.5320600739458,-59.382284108312405
1072.106,0.961,-0.265,-0.494,0.12,-0.545,-0.164,-151.7892339067253,-59.74327215295679,-152.47577819120045,-59.4328058259049
1072.162,0.949,-0.266,-0.506,0.181,0.188,0.095,-152.26946776212193,-58.93614226226854,-152.45205425601503,-59.38627161001534
1072.218,0.958,-0.265,-0.51,-0.056,-0.888,-0.057,-152.54325771540013,-59.03892296200173,-152.46092869313884,-59.40518449048463
1072.275,0.941,-0.261,-0.51,-0.033,0.684,0.019,-152.89823590832015,-58.66583654230825,-152.49286513068594,-59.31340045305198
1072.331,0.953,-0.258,-0.503,0.051,-1.049,-0.347,-152.84569338560962,-59.324103165652694,-152.51542039375687,-59.36330326863065
1072.388,0.956,-0.262,-0.5,0.036,0.096,0.034,-152.34546152475534,-59.43958874817709,-152.50316271136762,-59.35782367871797
1072.444,0.955,-0.256,-0.507,0.005,-0.445,0.111,-153.20937605328797,-59.258846579325294,-152.55306898052532,-59.368724050404225
1072.5,0.953,-0.26,-0.503,-0.354,0.6,0.011,-152.6656204546129,-59.28340223623024,-152.58188224355783,-59.3258771402867
1072.556,0.947,-0.253,-0.508,-0.071,1.051,0.072,-153.5252494250873,-59.06673762596904,-152.6538319626838,-59.24736335223127
1072.613,0.951,-0.257,-0.506,-0.102,-1.216,0.027,-153.07375090013153,-59.17264549520745,-152.6931812540018,-59.3004051186254
1072.669,0.953,-0.268,-0.496,-0.186,1.264,0.248,-151.61664585847018,-59.39241164211195,-152.63357675191443,-59.23450108303406
1072.725,0.958,-0.258,-0.507,0.15,-0.522,-0.118,-153.0295609213491,-59.297737921706414,-152.65652259485248,-59.26001338951248
1072.781,0.957,-0.263,-0.499,0.081,0.623,-0.141,-152.20834318954937,-59.48446711840547,-152.62525871929188,-59.2371376619241
1072.837,0.957,-0.257,-0.498,-0.201,-0.758,-0.08,-152.70335851907453,-59.64742373695439,-152.64431288049047,-59.29967443347697
1072.893,0.956,-0.266,-0.508,-0.109,0.135,-0.233,-152.36245420505634,-59.04381117220108,-152.63371713364606,-59.27020054701363
1072.95,0.948,-0.259,-0.503,0.059,0.272,-0.179,-152.75558406745677,-59.17131119036497,-152.6417895427492,-59.24363025930851
1073.006,0.954,-0.267,-0.499,0.173,0.722,0.065,-151.8500944298715,-59.3222984002803,-152.5807243038998,-59.20612978774457
1073.063,0.956,-0.26,-0.496,-0.186,-0.461,0.149,-152.336761672182,-59.63869722147769,-152.57497036233616,-59.25547892908307
1073.119,0.954,-0.263,-0.509,0.036,0.158,-0.286,-152.6746279197141,-59.01279725960645,-152.5808095004325,-59.22614830994805
1073.176,0.953,-0.265,-0.503,0.036,-0.171,-0.011,-152.21799098888474,-59.18072124575492,-152.55467888004245,-59.227268319006136
1073.232,0.94,-0.262,-0.498,0.12,0.272,-0.088,-152.25094388478502,-59.09387661040198,-152.5275568859141,-59.199011931109744
1073.289,0.955,-0.258,-0.502,-0.132,-0.3,0.286,-152.79936402875168,-59.41632192160331,-152.5531000879304,-59.2249119281663
1073.345,0.954,-0.255,-0.514,-0.01,-0.01,0.004,-153.61357888956476,-58.9754363131193,-152.62756728103244,-59.203463493289924
1073.402,0.951,-0.263,-0.507,-0.086,0.303,-0.027,-152.58252948781453,-59.01166464629056,-152.63140788613092,-59.1688288535663
1073.458,0.954,-0.261,-0.5,-0.132,-0.194,-0.004,-152.43544106570084,-59.407647876379734,-152.62691429827316,-59.190081363073936
1073.514,0.959,-0.26,-0.501,0.043,-0.071,0.134,-152.57239924249382,-59.5198154416166,-152.62272092317346,-59.211724543381635
1073.57,0.956,-0.259,-0.504,0.081,-0.537,-0.134,-152.80187205149088,-59.343313389374195,-152.63268224037634,-59.24454911038399
1073.626,0.95,-0.256,-0.511,-0.086,0.524,0.08,-153.390116453736,-58.96803621596838,-152.6919055519817,-59.1939416518829
1073.682,0.954,-0.268,-0.498,-0.01,0.242,-0.011,-151.7129677737343,-59.340441066525095,-152.62806859633832,-59.18692155865807
1073.739,0.956,-0.261,-0.503,0.051,0.158,0.21,-152.57580263647642,-59.342022018988274,-152.62338032171618,-59.185004226514
1073.795,0.954,-0.26,-0.507,0.127,-0.018,-0.095,-152.85031830221683,-59.152094188952475,-152.6340530286002,-59.17975663347287
1073.851,0.957,-0.263,-0.499,-0.148,-0.049,-0.233,-152.20834318954937,-59.48446711840547,-152.61418152358814,-59.1995229581624
1073.908,0.955,-0.266,-0.502,0.211,0.173,0.149,-152.0817568691423,-59.25202016699028,-152.56707927727632,-59.190612170991265
1073.964,0.942,-0.262,-0.503,0.013,0.104,0.08,-152.4861306992901,-58.94935383707221,-152.5607925515514,-59.16523071234237
1074.02,0.952,-0.252,-0.51,0.204,-1.98,-0.263,-153.70520992941616,-59.139819086062055,-152.6295427505406,-59.262969427378515
1074.076,0.958,-0.261,-0.503,-0.102,0.356,0.141,-152.57580263647642,-59.394518594061815,-152.63336405721367,-59.249613522029534
1074.133,0.981,-0.258,-0.512,-0.529,0.967,-0.782,-153.25617942015776,-59.69649506815844,-152.70687451396785,-59.22571250439146
1074.189,0.958,-0.262,-0.502,-0.025,0.066,0.103,-152.43938777261386,-59.413371493759655,-152.69291696701305,-59.23274010676575
1074.245,0.955,-0.259,-0.501,0.127,1.875,0.05,-152.66257035409149,-59.43547630950983,-152.6869592934717,-59.146946300766686
1074.301,0.957,-0.261,-0.504,-0.094,0.005,-0.126,-152.6222972286683,-59.32895240833179,-152.6900809350935,-59.15779229702994
1074.358,0.958,-0.268,-0.506,-0.086,0.562,-0.088,-152.09232479638425,-59.13350328094478,-152.6556952604759,-59.12512044369952
1074.415,0.961,-0.259,-0.5,0.211,-0.346,-0.088,-152.61584336600367,-59.63176292034818,-152.6430688946189,-59.17756447574278
1074.471,0.952,-0.26,-0.501,-0.201,0.02,-0.034,-152.57239924249382,-59.335999149655294,-152.6498797872475,-59.18741361106168
1074.528,0.956,-0.251,-0.501,0.234,-0.071,-0.004,-153.3892219535298,-59.62332640302063,-152.69003140933398,-59.221726156274485
1074.584,0.96,-0.27,-0.494,0.265,0.432,-0.019,-151.34080563114665,-59.611454899201284,-152.58498975669653,-59.22742652994743
1074.64,0.951,-0.268,-0.509,-0.102,-0.209,-0.172,-152.2321814815224,-58.83098294586097,-152.56563985814702,-59.21269487588691
1074.696,0.961,-0.258,-0.5,-0.232,-0.026,-0.134,-152.70626595652075,-59.65215007600858,-152.5866345858564,-59.24569925975307
1074.752,0.954,-0.263,-0.51,-0.048,-0.01,-0.111,-152.72046327873832,-58.973591617020304,-152.5978313385455,-59.2293141878506
1074.809,0.957,-0.262,-0.486,-0.201,-0.216,-0.134,-151.67113050734258,-60.01801070920206,-152.54370117195876,-59.297084780162294
1074.865,0.952,-0.265,-0.501,-0.125,0.127,0.088,-152.12375108497315,-59.23277614492465,-152.51874837993986,-59.289032797378994
1074.921,0.96,-0.261,-0.511,-0.209,-0.255,-0.118,-152.94372658401136,-59.13305741462287,-152.55602655976134,-59.294392216165235
1074.978,0.954,-0.26,-0.505,-0.086,-0.056,-0.05,-152.75825848264267,-59.230906675247,-152.57232661313742,-59.29554544543174
1075.034,0.957,-0.259,-0.505,-0.148,0.18,-0.218,-152.84801495429795,-59.33016202041447,-152.59733271479638,-59.29098305894727
